Packet number,Gyroscope X (deg/s),Gyroscope Y (deg/s),Gyroscope Z (deg/s),Accelerometer X (g),Accelerometer Y (g),Accelerometer Z (g),Magnetometer X (G),Magnetometer Y (G),Magnetometer Z (G)
53,0.305344,6.671756,3.587786,-0.909912,0.056152,0.405029,0,0,0
56,0.412214,6.839695,3.78626,-0.908691,0.054321,0.405884,0,0,0
59,0.641221,7.007634,3.862595,-0.907959,0.054199,0.405762,0,0,0
62,0.748092,7.206107,3.89313,-0.906494,0.054321,0.403809,0,0,0
65,0.854962,7.29771,3.908397,-0.90918,0.055664,0.402222,0,0,0
68,0.763359,7.450382,4.045802,-0.911621,0.057495,0.398926,0,0,0
71,1.099237,7.496183,4.076336,-0.911133,0.056763,0.402344,0,0,0
74,0.870229,7.541985,3.89313,-0.90979,0.059082,0.399902,0,0,0
77,0.916031,7.648855,3.969466,-0.911377,0.059326,0.404297,0,0,0
80,1.038168,7.618321,3.938931,-0.910278,0.060669,0.401611,0,0,0
83,1.038168,7.679389,3.954198,-0.913696,0.061401,0.398682,0,0,0
86,1.022901,7.603053,3.816794,-0.914551,0.061646,0.402832,0,0,0
89,1.175573,7.725191,3.633588,-0.907349,0.06189,0.400757,0,0,0
92,1.022901,7.78626,3.679389,-0.912231,0.05957,0.401123,0,0,0
95,1.129771,7.587786,3.526718,-0.912109,0.059082,0.401733,0,0,0
98,0.977099,7.618321,3.328244,-0.914185,0.062866,0.400024,0,0,0
101,0.931298,7.572519,3.236641,-0.912109,0.05957,0.402466,0,0,0
104,0.977099,7.557252,3.206107,-0.910645,0.065063,0.400635,0,0,0
107,1.022901,7.541985,3.099237,-0.912354,0.061401,0.401733,0,0,0
110,1.19084,7.541985,2.839695,-0.913452,0.059448,0.396973,0,0,0
113,1.022901,7.29771,2.80916,-0.911865,0.061035,0.400269,0,0,0
116,1.068702,7.129771,2.687023,-0.914551,0.066528,0.39624,0,0,0
119,0.885496,7.19084,2.48855,-0.909912,0.062988,0.398193,0,0,0
122,0.793893,6.946565,2.290076,-0.912109,0.060303,0.401733,0,0,0
125,0.839695,6.732824,2.137405,-0.911133,0.061035,0.398682,0,0,0
128,0.839695,6.625954,2.10687,-0.909668,0.058838,0.397827,0,0,0
131,0.977099,6.412214,2.045802,-0.911987,0.056519,0.398804,0,0,0
134,1.068702,6.396947,2.076336,-0.911011,0.059937,0.402222,0,0,0
137,1.19084,6.427481,2.122137,-0.908691,0.056396,0.400879,0,0,0
140,1.358779,6.351145,2.122137,-0.913452,0.05896,0.400635,0,0,0
143,1.557252,6.381679,2.091603,-0.9104,0.057617,0.400513,0,0,0
146,1.679389,6.244275,1.954198,-0.90918,0.058228,0.402832,0,0,0
149,1.618321,6.274809,2.091603,-0.911499,0.060547,0.402466,0,0,0
152,1.832061,6.152672,1.862595,-0.9104,0.062012,0.402222,0,0,0
155,1.633588,6.061069,1.78626,-0.909424,0.062622,0.401123,0,0,0
158,1.78626,6.076336,1.633588,-0.916016,0.061646,0.407227,0,0,0
161,1.679389,5.969466,1.572519,-0.911377,0.064331,0.405518,0,0,0
164,1.694656,5.78626,1.618321,-0.910645,0.062622,0.400391,0,0,0
167,1.709924,5.664122,1.541985,-0.911743,0.063721,0.398071,0,0,0
170,1.984733,5.679389,1.435115,-0.910278,0.064697,0.402832,0,0,0
173,1.709924,5.709924,1.465649,-0.910278,0.063599,0.398193,0,0,0
176,1.89313,5.709924,1.282443,-0.908447,0.065308,0.400391,0,0,0
179,1.755725,5.587786,1.282443,-0.90564,0.061401,0.400024,0,0,0
182,1.664122,5.664122,1.221374,-0.907349,0.063232,0.4021,0,0,0
185,1.740458,5.603053,1.099237,-0.910034,0.066406,0.402832,0,0,0
188,1.694656,5.709924,0.992366,-0.908325,0.066162,0.400513,0,0,0
191,1.618321,5.618321,0.870229,-0.90918,0.064209,0.398682,0,0,0
194,1.480916,5.572519,0.900763,-0.910645,0.065186,0.400879,0,0,0
197,1.465649,5.480916,0.885496,-0.910034,0.061523,0.402466,0,0,0
200,1.572519,5.557252,0.793893,-0.910522,0.059082,0.401367,0,0,0
203,1.679389,5.526718,0.70229,-0.910645,0.063477,0.399902,0,0,0
206,1.664122,5.282443,0.885496,-0.910889,0.064453,0.401123,0,0,0
209,1.709924,5.19084,0.824427,-0.912231,0.062988,0.403564,0,0,0
212,1.679389,5.236641,0.824427,-0.911865,0.066162,0.403687,0,0,0
215,1.389313,5.206107,0.70229,-0.910767,0.07019,0.400024,0,0,0
218,1.129771,5.083969,0.427481,-0.90918,0.073975,0.403931,0,0,0
221,0.793893,4.854962,0.229008,-0.911987,0.071899,0.398438,0,0,0
224,0.396947,4.717557,-0.045802,-0.914917,0.068481,0.399902,0,0,0
227,0.076336,4.580153,-0.183206,-0.914062,0.06665,0.396118,0,0,0
230,0.091603,4.442748,-0.320611,-0.912598,0.063721,0.398682,0,0,0
233,0.045802,4.48855,-0.167939,-0.914185,0.063232,0.39917,0,0,0
236,0.10687,4.305344,-0.21374,-0.912598,0.065063,0.397583,0,0,0
239,0.152672,4.091603,-0.122137,-0.914673,0.060913,0.398193,0,0,0
242,0.061069,3.954198,-0.137405,-0.912354,0.067261,0.39917,0,0,0
245,0.244275,3.587786,0.122137,-0.914307,0.063232,0.393677,0,0,0
248,0.045802,3.450382,-0.091603,-0.917969,0.059937,0.393555,0,0,0
251,0.045802,3.267176,0.122137,-0.911987,0.063232,0.395386,0,0,0
254,-0.015267,2.916031,-0.015267,-0.913818,0.064453,0.394897,0,0,0
1,0.045802,2.793893,0.10687,-0.915039,0.060547,0.394043,0,0,0
4,0.045802,2.473282,0.21374,-0.917236,0.058472,0.394775,0,0,0
7,0.21374,2.122137,0.427481,-0.917114,0.055908,0.390991,0,0,0
10,0.396947,1.862595,0.656489,-0.916382,0.056641,0.396362,0,0,0
13,0.534351,1.603053,0.946565,-0.918579,0.057861,0.396484,0,0,0
16,0.656489,1.312977,1.099237,-0.918579,0.05603,0.396484,0,0,0
19,0.885496,0.916031,1.328244,-0.919067,0.058472,0.395264,0,0,0
22,1.022901,0.534351,1.450382,-0.921875,0.056641,0.395142,0,0,0
25,1.206107,0.198473,1.709924,-0.92334,0.057129,0.393066,0,0,0
28,1.40458,-0.274809,1.725191,-0.922241,0.062378,0.394653,0,0,0
31,1.236641,-0.687023,1.847328,-0.923584,0.060425,0.395874,0,0,0
34,1.496183,-0.961832,1.648855,-0.919434,0.065063,0.394409,0,0,0
37,1.267176,-1.603053,1.557252,-0.918701,0.070557,0.394409,0,0,0
40,0.885496,-1.847328,1.221374,-0.918457,0.07019,0.393555,0,0,0
43,0.778626,-2.167939,0.946565,-0.918213,0.068359,0.390625,0,0,0
46,0.580153,-2.748092,0.763359,-0.921631,0.064697,0.394531,0,0,0
49,0.519084,-3.007634,0.732824,-0.918823,0.060913,0.389038,0,0,0
52,0.59542,-3.251908,0.732824,-0.915894,0.062622,0.391357,0,0,0
55,0.687023,-3.572519,0.763359,-0.918823,0.060791,0.396362,0,0,0
58,0.687023,-3.984733,0.839695,-0.915527,0.05835,0.395386,0,0,0
61,0.59542,-4.320611,1.007634,-0.917114,0.060669,0.396484,0,0,0
64,0.854962,-4.610687,0.824427,-0.913452,0.062744,0.395508,0,0,0
67,1.068702,-4.824427,0.870229,-0.914551,0.062012,0.394409,0,0,0
70,0.885496,-4.992366,0.854962,-0.918701,0.064941,0.398438,0,0,0
73,0.870229,-5.251908,0.59542,-0.912231,0.068115,0.400024,0,0,0
76,0.793893,-5.419847,0.549618,-0.914795,0.06604,0.400879,0,0,0
79,0.763359,-5.51145,0.351145,-0.913818,0.064575,0.398193,0,0,0
82,0.793893,-5.740458,0.152672,-0.919556,0.067871,0.398804,0,0,0
85,0.656489,-5.862595,-0.030534,-0.912109,0.065552,0.401611,0,0,0
88,0.625954,-6.061069,-0.076336,-0.915649,0.065063,0.404053,0,0,0
91,0.656489,-6.015267,-0.366412,-0.915649,0.065552,0.405029,0,0,0
94,0.48855,-6.10687,-0.335878,-0.911377,0.063477,0.400146,0,0,0
97,0.59542,-6.061069,-0.580153,-0.910767,0.064209,0.401611,0,0,0
100,0.519084,-6.10687,-0.549618,-0.91272,0.064209,0.404541,0,0,0
103,0.564885,-6.10687,-0.687023,-0.913696,0.063354,0.403809,0,0,0
106,0.59542,-6.015267,-0.793893,-0.913208,0.067505,0.404785,0,0,0
109,0.442748,-5.969466,-0.839695,-0.911255,0.06604,0.405273,0,0,0
112,0.335878,-5.816794,-1.129771,-0.910034,0.06543,0.405029,0,0,0
115,0.21374,-5.648855,-1.038168,-0.910645,0.065796,0.403442,0,0,0
118,0.183206,-5.51145,-1.358779,-0.908203,0.06604,0.402466,0,0,0
121,0.198473,-5.328244,-1.267176,-0.911499,0.061157,0.403564,0,0,0
124,0.122137,-5.236641,-1.435115,-0.912598,0.061035,0.404663,0,0,0
127,0.366412,-5.068702,-1.267176,-0.912354,0.061279,0.40564,0,0,0
130,0.427481,-5.083969,-1.374046,-0.911743,0.063721,0.405762,0,0,0
133,0.381679,-4.870229,-1.312977,-0.909058,0.065796,0.411011,0,0,0
136,0.473282,-4.763359,-1.267176,-0.909546,0.063965,0.405273,0,0,0
139,0.503817,-4.625954,-1.419847,-0.911255,0.064209,0.404907,0,0,0
142,0.610687,-4.366412,-1.374046,-0.910278,0.065918,0.408447,0,0,0
145,0.412214,-4.305344,-1.236641,-0.911621,0.064209,0.407349,0,0,0
148,0.458015,-3.816794,-1.206107,-0.908203,0.063843,0.407227,0,0,0
151,0.458015,-3.679389,-1.083969,-0.909058,0.060059,0.410767,0,0,0
154,0.48855,-3.312977,-1.251908,-0.908813,0.063477,0.408691,0,0,0
157,0.503817,-2.916031,-1.236641,-0.90625,0.067871,0.411011,0,0,0
160,0.366412,-2.70229,-1.328244,-0.904541,0.065918,0.408813,0,0,0
163,0.076336,-2.427481,-1.435115,-0.90979,0.068115,0.408447,0,0,0
166,-0.137405,-2.229008,-1.572519,-0.906738,0.067383,0.405151,0,0,0
169,-0.152672,-1.984733,-1.709924,-0.911133,0.064697,0.408325,0,0,0
172,-0.183206,-1.603053,-1.725191,-0.910522,0.0625,0.403931,0,0,0
175,-0.167939,-1.419847,-1.725191,-0.909302,0.060913,0.405029,0,0,0
178,-0.152672,-1.328244,-1.618321,-0.906494,0.062378,0.407959,0,0,0
181,-0.137405,-1.099237,-1.419847,-0.904541,0.057007,0.402222,0,0,0
184,-0.045802,-0.961832,-1.374046,-0.899658,0.057251,0.4021,0,0,0
187,0.21374,-0.687023,-1.251908,-0.906372,0.060059,0.40564,0,0,0
190,0.183206,-0.473282,-1.007634,-0.911377,0.057861,0.408203,0,0,0
193,0.198473,-0.229008,-0.946565,-0.912476,0.062134,0.410889,0,0,0
196,0.244275,0.030534,-0.870229,-0.913818,0.063354,0.413452,0,0,0
199,0.21374,0.412214,-0.732824,-0.917969,0.065186,0.412598,0,0,0
202,0.244275,0.549618,-0.778626,-0.914795,0.060425,0.40918,0,0,0
205,0.198473,0.70229,-0.854962,-0.90979,0.062378,0.404175,0,0,0
208,0.045802,0.793893,-0.748092,-0.901611,0.062988,0.395142,0,0,0
211,0.076336,0.870229,-0.885496,-0.900635,0.061768,0.397949,0,0,0
214,0.045802,0.977099,-0.961832,-0.908691,0.062866,0.404785,0,0,0
217,0.045802,0.961832,-0.854962,-0.913696,0.059692,0.408081,0,0,0
220,0.122137,1.221374,-0.70229,-0.91687,0.05957,0.411987,0,0,0
223,0.198473,1.251908,-0.610687,-0.92041,0.059204,0.415527,0,0,0
226,0.290076,1.374046,-0.412214,-0.922241,0.061157,0.413696,0,0,0
229,0.396947,1.450382,-0.366412,-0.916504,0.060913,0.408936,0,0,0
232,0.290076,1.343511,-0.259542,-0.911987,0.060669,0.402344,0,0,0
235,0.366412,1.312977,-0.442748,-0.907959,0.061279,0.399536,0,0,0
238,0.396947,1.435115,-0.396947,-0.9021,0.060547,0.400635,0,0,0
241,0.442748,1.572519,-0.183206,-0.903809,0.059204,0.401611,0,0,0
244,0.427481,1.587786,-0.335878,-0.906494,0.061401,0.401733,0,0,0
247,0.412214,1.725191,-0.412214,-0.90564,0.06311,0.408203,0,0,0
250,0.351145,1.740458,-0.442748,-0.91394,0.065308,0.403931,0,0,0
253,0.045802,1.709924,-0.519084,-0.912598,0.064819,0.408081,0,0,0
0,0.320611,1.740458,-0.549618,-0.91687,0.063843,0.408081,0,0,0
3,-0.045802,1.847328,-0.519084,-0.910767,0.0625,0.407715,0,0,0
6,-0.076336,1.679389,-0.427481,-0.91748,0.06189,0.406494,0,0,0
9,0.152672,1.847328,-0.396947,-0.914795,0.060303,0.402954,0,0,0
12,0.244275,1.862595,-0.396947,-0.909668,0.058472,0.403931,0,0,0
15,0.229008,1.954198,-0.351145,-0.910278,0.059082,0.397827,0,0,0
18,0.274809,1.908397,-0.167939,-0.90918,0.059204,0.399414,0,0,0
21,0.274809,1.832061,-0.10687,-0.909058,0.062622,0.4021,0,0,0
24,0.091603,1.847328,-0.076336,-0.910522,0.065063,0.402832,0,0,0
27,0.152672,1.908397,0.015267,-0.916992,0.06311,0.404053,0,0,0
30,0.183206,1.78626,0.091603,-0.914551,0.061523,0.403198,0,0,0
33,0.274809,1.877863,0.244275,-0.916504,0.060059,0.405273,0,0,0
36,0.045802,1.877863,0.198473,-0.9198,0.064819,0.405884,0,0,0
39,-0.045802,1.78626,0.061069,-0.916626,0.067017,0.401489,0,0,0
42,-0.580153,1.679389,-0.076336,-0.914185,0.06189,0.400879,0,0,0
45,-0.48855,1.679389,-0.045802,-0.90979,0.0625,0.398438,0,0,0
48,-0.320611,1.709924,0.045802,-0.910278,0.058594,0.396484,0,0,0
51,-0.366412,1.709924,0.015267,-0.907959,0.060791,0.398804,0,0,0
54,-0.412214,1.740458,0.167939,-0.906982,0.061646,0.401855,0,0,0
57,-0.442748,1.816794,0.229008,-0.906494,0.059204,0.403931,0,0,0
60,-0.534351,1.801527,0.229008,-0.910645,0.068359,0.403931,0,0,0
63,-0.625954,1.877863,0.091603,-0.908569,0.068115,0.406128,0,0,0
66,-1.145038,1.89313,-0.091603,-0.911011,0.067871,0.403198,0,0,0
69,-1.282443,1.969466,-0.335878,-0.909912,0.066772,0.40271,0,0,0
72,-1.603053,1.89313,-0.305344,-0.910522,0.05957,0.405029,0,0,0
75,-1.51145,2.030534,-0.442748,-0.91272,0.057129,0.39978,0,0,0
78,-1.374046,1.984733,-0.21374,-0.910645,0.057129,0.402222,0,0,0
81,-1.068702,2.137405,0.076336,-0.912354,0.053711,0.402832,0,0,0
84,-0.977099,2.152672,0.244275,-0.910156,0.055786,0.404541,0,0,0
87,-0.778626,2.152672,0.564885,-0.91333,0.057617,0.405884,0,0,0
90,-0.610687,2.152672,0.854962,-0.912964,0.057861,0.402954,0,0,0
93,-0.458015,2.198473,0.961832,-0.916626,0.057373,0.402466,0,0,0
96,-0.366412,2.045802,1.053435,-0.91687,0.061035,0.403931,0,0,0
99,-0.427481,2.030534,1.145038,-0.914307,0.057739,0.400146,0,0,0
102,-0.076336,1.832061,1.251908,-0.91748,0.057373,0.402588,0,0,0
105,-0.229008,1.877863,1.175573,-0.912476,0.061279,0.400269,0,0,0
108,-0.152672,1.740458,1.206107,-0.916016,0.06189,0.397339,0,0,0
111,-0.061069,1.648855,1.19084,-0.913818,0.064575,0.398193,0,0,0
114,-0.076336,1.541985,1.206107,-0.909668,0.060913,0.399536,0,0,0
117,0.183206,1.603053,1.19084,-0.912598,0.060303,0.399048,0,0,0
120,0.045802,1.40458,1.312977,-0.91394,0.060913,0.402832,0,0,0
123,0.396947,1.389313,1.328244,-0.916504,0.063599,0.400757,0,0,0
126,0.305344,1.29771,1.419847,-0.91394,0.064209,0.403198,0,0,0
129,0.396947,1.251908,1.022901,-0.910156,0.070557,0.398193,0,0,0
132,-0.015267,1.083969,0.961832,-0.913452,0.070068,0.398193,0,0,0
135,-0.183206,1.038168,0.625954,-0.913574,0.066406,0.396973,0,0,0
138,-0.396947,1.022901,0.229008,-0.91687,0.067505,0.397583,0,0,0
141,-0.458015,0.80916,0.045802,-0.915039,0.062622,0.39563,0,0,0
144,-0.503817,0.656489,-0.198473,-0.913086,0.061401,0.399658,0,0,0
147,-0.59542,0.59542,-0.396947,-0.915161,0.062012,0.398315,0,0,0
150,-0.641221,0.381679,-0.351145,-0.915894,0.061401,0.397339,0,0,0
153,-0.564885,0.351145,-0.335878,-0.917969,0.061646,0.402466,0,0,0
156,-0.473282,0.198473,-0.290076,-0.918457,0.06189,0.40271,0,0,0
159,-0.305344,0.167939,-0.320611,-0.918335,0.059082,0.400269,0,0,0
162,-0.122137,0.030534,-0.274809,-0.915894,0.056274,0.401123,0,0,0
165,-0.152672,-0.015267,-0.030534,-0.912354,0.059448,0.398438,0,0,0
168,0.061069,-0.030534,0,-0.910645,0.060547,0.400146,0,0,0
171,0.259542,0.061069,0.045802,-0.910767,0.061279,0.402588,0,0,0
174,0.427481,0.137405,0.198473,-0.911743,0.062744,0.399902,0,0,0
177,0.396947,0.183206,0.137405,-0.910645,0.06189,0.401123,0,0,0
180,0.519084,0.305344,0.091603,-0.907715,0.062256,0.4021,0,0,0
183,0.48855,0.351145,0.259542,-0.916504,0.063232,0.405396,0,0,0
186,0.564885,0.503817,0.167939,-0.915161,0.061157,0.401855,0,0,0
189,0.625954,0.580153,0.229008,-0.912842,0.063477,0.403076,0,0,0
192,0.59542,0.778626,0.335878,-0.911987,0.059326,0.404175,0,0,0
195,0.656489,0.931298,0.351145,-0.910034,0.062134,0.402588,0,0,0
198,0.671756,1.160305,0.442748,-0.910645,0.060059,0.402344,0,0,0
201,0.564885,1.221374,0.351145,-0.910767,0.06189,0.403076,0,0,0
204,0.931298,1.450382,0.625954,-0.915405,0.060303,0.401733,0,0,0
207,0.778626,1.618321,0.70229,-0.914062,0.058105,0.404419,0,0,0
210,0.946565,1.801527,0.778626,-0.914795,0.061401,0.404175,0,0,0
213,1.19084,1.877863,0.824427,-0.910889,0.063599,0.402466,0,0,0
216,1.053435,2.045802,0.870229,-0.908813,0.065186,0.396362,0,0,0
219,1.160305,2.10687,0.793893,-0.912476,0.06189,0.39917,0,0,0
222,0.946565,2.152672,0.931298,-0.911499,0.060181,0.400879,0,0,0
225,1.160305,2.198473,0.839695,-0.913452,0.060669,0.401245,0,0,0
228,1.145038,2.290076,0.977099,-0.911377,0.061523,0.401245,0,0,0
231,1.251908,2.229008,0.763359,-0.913818,0.063232,0.398682,0,0,0
234,1.129771,2.21374,0.870229,-0.913574,0.063477,0.39624,0,0,0
237,1.145038,2.137405,0.763359,-0.916016,0.060181,0.396484,0,0,0
240,1.175573,2.061069,0.824427,-0.911865,0.061768,0.397217,0,0,0
243,1.083969,2.122137,0.748092,-0.912354,0.063354,0.397461,0,0,0
246,0.977099,1.862595,0.824427,-0.91394,0.0625,0.394409,0,0,0
249,1.114504,1.847328,0.687023,-0.916626,0.06311,0.394531,0,0,0
252,1.007634,1.862595,0.763359,-0.915649,0.063477,0.399902,0,0,0
255,1.022901,1.832061,0.778626,-0.911743,0.05957,0.395386,0,0,0
2,1.068702,1.664122,0.80916,-0.91687,0.060425,0.393921,0,0,0
5,1.038168,1.603053,0.870229,-0.916138,0.060669,0.398926,0,0,0
8,1.099237,1.587786,0.946565,-0.918213,0.063599,0.398682,0,0,0
11,1.374046,1.343511,0.946565,-0.914917,0.059082,0.399658,0,0,0
14,1.221374,1.328244,1.129771,-0.914185,0.062988,0.395996,0,0,0
17,1.282443,1.236641,1.099237,-0.918701,0.060547,0.39856,0,0,0
20,1.206107,1.053435,1.175573,-0.916382,0.061157,0.397217,0,0,0
23,1.19084,1.053435,0.992366,-0.915527,0.062622,0.39624,0,0,0
26,1.236641,0.854962,1.145038,-0.915894,0.066528,0.398438,0,0,0
29,0.931298,0.641221,1.083969,-0.918701,0.06665,0.397705,0,0,0
32,1.022901,0.549618,1.19084,-0.916138,0.065308,0.396118,0,0,0
35,1.038168,0.366412,1.129771,-0.91333,0.061523,0.397827,0,0,0
38,1.145038,0.335878,1.175573,-0.913452,0.064453,0.39502,0,0,0
41,1.099237,0.198473,1.221374,-0.916382,0.060303,0.397949,0,0,0
44,1.068702,0.061069,1.160305,-0.91626,0.060791,0.395264,0,0,0
47,1.068702,-0.076336,1.374046,-0.913696,0.060059,0.398193,0,0,0
50,1.206107,-0.10687,1.358779,-0.913086,0.05957,0.398926,0,0,0
53,1.053435,-0.091603,1.557252,-0.915771,0.059937,0.399048,0,0,0
56,1.160305,-0.122137,1.51145,-0.913696,0.061279,0.398926,0,0,0
59,1.022901,-0.183206,1.78626,-0.912598,0.061401,0.400757,0,0,0
62,1.175573,-0.183206,1.770992,-0.915283,0.061768,0.400879,0,0,0
65,1.251908,-0.091603,2.045802,-0.91687,0.059448,0.39917,0,0,0
68,1.221374,-0.030534,2.137405,-0.915405,0.059326,0.400513,0,0,0
71,1.389313,-0.030534,2.381679,-0.915771,0.059448,0.402344,0,0,0
74,1.480916,0.015267,2.519084,-0.914429,0.057739,0.401367,0,0,0
77,1.740458,0.030534,2.732824,-0.913208,0.057739,0.397461,0,0,0
80,1.877863,0.061069,2.946565,-0.91272,0.059082,0.402466,0,0,0
83,1.938931,0.045802,3.038168,-0.914795,0.060669,0.395752,0,0,0
86,1.847328,0.015267,3.267176,-0.915283,0.062866,0.404175,0,0,0
89,1.984733,0.122137,3.236641,-0.918945,0.062988,0.395996,0,0,0
92,1.755725,0.122137,3.526718,-0.916016,0.062866,0.39856,0,0,0
95,1.755725,0.122137,3.480916,-0.910889,0.065918,0.396973,0,0,0
98,1.740458,0.122137,3.51145,-0.912109,0.065186,0.395752,0,0,0
101,1.89313,0.167939,3.450382,-0.908813,0.066528,0.396973,0,0,0
104,1.572519,0.122137,3.603053,-0.913818,0.061157,0.396973,0,0,0
107,1.862595,0.152672,3.633588,-0.911865,0.061646,0.399292,0,0,0
110,1.725191,0.122137,3.740458,-0.914917,0.064087,0.396118,0,0,0
113,1.877863,0.015267,3.755725,-0.913574,0.06311,0.398926,0,0,0
116,1.847328,0,3.877863,-0.913452,0.068115,0.3927,0,0,0
119,1.618321,-0.183206,3.633588,-0.915527,0.071411,0.39624,0,0,0
122,1.435115,-0.259542,3.557252,-0.915527,0.064453,0.394897,0,0,0
125,1.236641,-0.351145,3.496183,-0.916138,0.065918,0.397583,0,0,0
128,1.328244,-0.412214,3.343511,-0.91687,0.066528,0.3927,0,0,0
131,1.267176,-0.458015,3.389313,-0.91748,0.062622,0.395874,0,0,0
134,1.312977,-0.534351,3.358779,-0.915405,0.064331,0.394775,0,0,0
137,1.29771,-0.641221,3.282443,-0.914673,0.069336,0.395996,0,0,0
140,1.236641,-0.641221,3.236641,-0.919434,0.069092,0.395874,0,0,0
143,1.221374,-0.778626,3.129771,-0.91626,0.064575,0.401001,0,0,0
146,1.175573,-0.824427,3.053435,-0.913696,0.06543,0.394531,0,0,0
149,1.19084,-0.931298,3.114504,-0.916138,0.063965,0.397461,0,0,0
152,1.160305,-0.854962,3.083969,-0.912598,0.064331,0.396118,0,0,0
155,1.328244,-1.038168,3.236641,-0.915039,0.064697,0.398804,0,0,0
158,1.51145,-1.145038,3.343511,-0.915894,0.063965,0.394165,0,0,0
161,1.526718,-0.961832,3.419847,-0.912598,0.063721,0.397827,0,0,0
164,1.557252,-1.038168,3.343511,-0.912964,0.070312,0.402344,0,0,0
167,1.541985,-0.977099,3.251908,-0.911011,0.067261,0.397827,0,0,0
170,1.557252,-0.946565,3.267176,-0.909546,0.064209,0.401001,0,0,0
173,1.572519,-0.870229,3.312977,-0.912964,0.063843,0.400269,0,0,0
176,1.572519,-0.824427,3.312977,-0.909424,0.063843,0.401489,0,0,0
179,1.908397,-0.748092,3.267176,-0.910889,0.065796,0.399658,0,0,0
182,2.015267,-0.671756,3.312977,-0.910156,0.067505,0.401001,0,0,0
185,1.908397,-0.366412,3.312977,-0.912231,0.069214,0.405029,0,0,0
188,1.877863,-0.167939,3.312977,-0.914551,0.069336,0.4021,0,0,0
191,1.877863,0,3.129771,-0.912109,0.067383,0.401489,0,0,0
194,1.832061,0.198473,3.267176,-0.911987,0.070312,0.401978,0,0,0
197,1.725191,0.534351,3.175573,-0.912598,0.072021,0.401978,0,0,0
200,1.740458,0.641221,3.160305,-0.911865,0.064941,0.402832,0,0,0
203,1.725191,0.977099,3.129771,-0.911377,0.067383,0.400024,0,0,0
206,1.679389,1.068702,3.221374,-0.910522,0.067017,0.401489,0,0,0
209,1.862595,1.236641,3.19084,-0.911377,0.069336,0.401245,0,0,0
212,1.847328,1.541985,3.251908,-0.910645,0.068237,0.400146,0,0,0
215,1.694656,1.648855,2.992366,-0.9104,0.072876,0.395996,0,0,0
218,1.557252,1.816794,2.931298,-0.915405,0.067871,0.401611,0,0,0
221,1.633588,1.816794,3.007634,-0.910522,0.06897,0.398438,0,0,0
224,1.526718,1.954198,2.916031,-0.911987,0.068481,0.399536,0,0,0
227,1.664122,2.198473,2.946565,-0.908569,0.067505,0.398804,0,0,0
230,1.78626,2.274809,2.70229,-0.912964,0.072388,0.400513,0,0,0
233,1.251908,2.290076,2.564885,-0.91333,0.075562,0.395508,0,0,0
236,1.175573,2.366412,2.244275,-0.911743,0.073853,0.39563,0,0,0
239,1.007634,2.427481,2.076336,-0.910645,0.072021,0.39624,0,0,0
242,0.916031,2.458015,1.877863,-0.911743,0.071411,0.39624,0,0,0
245,0.717557,2.534351,1.679389,-0.911865,0.072632,0.394043,0,0,0
248,0.732824,2.534351,1.51145,-0.915039,0.071899,0.398438,0,0,0
251,0.351145,2.503817,1.29771,-0.91333,0.072266,0.396729,0,0,0
254,0.442748,2.549618,1.145038,-0.91748,0.066406,0.39856,0,0,0
1,0.412214,2.335878,1.099237,-0.915894,0.068115,0.396729,0,0,0
4,0.48855,2.351145,0.946565,-0.915283,0.071777,0.396362,0,0,0
7,0.366412,2.335878,0.870229,-0.917114,0.068481,0.395264,0,0,0
10,0.427481,2.244275,0.610687,-0.915894,0.073853,0.397461,0,0,0
13,0.21374,2.076336,0.580153,-0.91626,0.06958,0.396362,0,0,0
16,0.198473,2.061069,0.442748,-0.914307,0.069946,0.39502,0,0,0
19,0.229008,2.015267,0.183206,-0.913086,0.073853,0.393066,0,0,0
22,0.10687,1.847328,-0.015267,-0.912598,0.073853,0.393433,0,0,0
25,-0.091603,1.816794,-0.183206,-0.918091,0.073853,0.3927,0,0,0
28,-0.259542,1.740458,-0.656489,-0.915405,0.077759,0.394165,0,0,0
31,-0.580153,1.648855,-0.961832,-0.915771,0.071899,0.390503,0,0,0
34,-0.641221,1.709924,-1.068702,-0.912231,0.067383,0.395264,0,0,0
37,-0.59542,1.78626,-1.358779,-0.915283,0.069092,0.391846,0,0,0
40,-0.763359,1.755725,-1.465649,-0.915039,0.073608,0.393066,0,0,0
43,-0.931298,1.725191,-1.618321,-0.914307,0.069824,0.396484,0,0,0
46,-0.885496,1.725191,-1.603053,-0.914429,0.067627,0.397949,0,0,0
49,-1.038168,1.862595,-1.679389,-0.911011,0.06897,0.398193,0,0,0
52,-0.793893,2,-1.755725,-0.914795,0.069946,0.399292,0,0,0
55,-0.900763,2.183206,-1.801527,-0.909424,0.071533,0.399048,0,0,0
58,-0.870229,2.381679,-1.877863,-0.912598,0.072754,0.398071,0,0,0
61,-1.053435,2.519084,-2.045802,-0.911865,0.073975,0.397339,0,0,0
64,-1.007634,2.748092,-2.320611,-0.91394,0.075684,0.398315,0,0,0
67,-1.374046,2.885496,-2.473282,-0.914062,0.075317,0.39917,0,0,0
70,-1.328244,3.007634,-2.656489,-0.914917,0.066772,0.401001,0,0,0
73,-1.51145,3.251908,-2.687023,-0.911743,0.074097,0.397461,0,0,0
76,-1.633588,3.419847,-2.961832,-0.910522,0.071899,0.394653,0,0,0
79,-1.801527,3.587786,-3.007634,-0.913086,0.069214,0.396973,0,0,0
82,-1.816794,3.709924,-3.022901,-0.914673,0.070679,0.399536,0,0,0
85,-1.633588,3.862595,-3.251908,-0.913574,0.066772,0.39563,0,0,0
88,-1.526718,3.954198,-3.251908,-0.911865,0.069214,0.399292,0,0,0
91,-1.679389,4.137405,-3.29771,-0.911499,0.071899,0.39563,0,0,0
94,-2.030534,4.458015,-3.267176,-0.912109,0.071167,0.395874,0,0,0
97,-2.091603,4.458015,-3.465649,-0.911255,0.069702,0.39624,0,0,0
100,-2.10687,4.580153,-3.541985,-0.912964,0.071533,0.397583,0,0,0
103,-2.137405,4.748092,-3.618321,-0.911987,0.069092,0.394775,0,0,0
106,-2.366412,4.916031,-3.709924,-0.91394,0.067505,0.398193,0,0,0
109,-2.458015,4.900763,-3.770992,-0.917603,0.06604,0.397705,0,0,0
112,-2.59542,4.916031,-3.832061,-0.915527,0.065674,0.392578,0,0,0
115,-2.351145,4.839695,-3.709924,-0.921021,0.063843,0.3927,0,0,0
118,-2.167939,4.748092,-3.541985,-0.917358,0.065186,0.393433,0,0,0
121,-2.167939,4.671756,-3.587786,-0.919678,0.063477,0.389038,0,0,0
124,-2.091603,4.396947,-3.633588,-0.9198,0.068604,0.38916,0,0,0
127,-2.549618,4.061069,-3.725191,-0.918213,0.078369,0.390137,0,0,0
130,-2.854962,4.030534,-4.305344,-0.918213,0.075317,0.388184,0,0,0
133,-3.435115,3.709924,-4.412214,-0.919556,0.072388,0.386475,0,0,0
136,-3.664122,3.419847,-4.839695,-0.917236,0.070435,0.387817,0,0,0
139,-3.770992,3.19084,-5.007634,-0.920044,0.070068,0.387939,0,0,0
142,-3.847328,2.854962,-5.343511,-0.918335,0.06897,0.388062,0,0,0
145,-4.030534,2.610687,-5.587786,-0.921265,0.067749,0.387329,0,0,0
148,-4.167939,2.381679,-5.725191,-0.917725,0.066284,0.387207,0,0,0
151,-4.10687,2.244275,-5.740458,-0.919556,0.0625,0.390625,0,0,0
154,-4.10687,2,-5.770992,-0.919312,0.064087,0.386597,0,0,0
157,-4.045802,1.862595,-5.832061,-0.917236,0.061523,0.38916,0,0,0
160,-3.984733,1.465649,-5.648855,-0.917358,0.061035,0.386841,0,0,0
163,-3.984733,1.343511,-5.603053,-0.918579,0.06311,0.387207,0,0,0
166,-4.030534,1.145038,-5.801527,-0.918701,0.065918,0.391357,0,0,0
169,-3.984733,0.977099,-5.89313,-0.91394,0.069092,0.391846,0,0,0
172,-4,0.885496,-6.152672,-0.915894,0.072266,0.395142,0,0,0
175,-4.48855,0.717557,-6.381679,-0.915161,0.068481,0.387939,0,0,0
178,-4.656489,0.763359,-6.763359,-0.915894,0.068481,0.390137,0,0,0
181,-4.839695,0.641221,-6.992366,-0.91687,0.06604,0.392456,0,0,0
184,-4.961832,0.625954,-7.129771,-0.917969,0.065796,0.393188,0,0,0
187,-4.992366,0.671756,-7.419847,-0.914551,0.066528,0.389404,0,0,0
190,-5.083969,0.717557,-7.526718,-0.920166,0.068237,0.391602,0,0,0
193,-5.282443,0.687023,-7.709924,-0.921265,0.067139,0.391113,0,0,0
196,-5.465649,0.580153,-7.862595,-0.918701,0.065796,0.391357,0,0,0
199,-5.664122,0.580153,-7.78626,-0.913696,0.062988,0.389404,0,0,0
202,-5.572519,0.748092,-7.938931,-0.916748,0.06189,0.394897,0,0,0
205,-5.740458,0.977099,-7.78626,-0.916992,0.06189,0.396973,0,0,0
208,-5.755725,1.114504,-7.694656,-0.910889,0.061646,0.396118,0,0,0
211,-5.709924,1.40458,-7.847328,-0.908203,0.063721,0.396606,0,0,0
214,-6.045802,1.78626,-8.122137,-0.911377,0.067261,0.396606,0,0,0
217,-6.381679,2.244275,-8.320611,-0.913818,0.068726,0.394897,0,0,0
220,-6.732824,2.519084,-8.549618,-0.911987,0.070312,0.394043,0,0,0
223,-7.145038,2.854962,-9.022901,-0.911499,0.068604,0.392822,0,0,0
226,-7.236641,3.022901,-9.160305,-0.917358,0.066528,0.391357,0,0,0
229,-7.633588,3.114504,-9.526718,-0.915894,0.067139,0.398071,0,0,0
232,-7.755725,3.358779,-9.755725,-0.915649,0.066162,0.392578,0,0,0
235,-7.801527,3.633588,-9.969466,-0.915161,0.066162,0.394653,0,0,0
238,-8.335878,3.877863,-10.244275,-0.915405,0.065796,0.396851,0,0,0
241,-8.610687,3.984733,-10.656489,-0.916016,0.06665,0.3927,0,0,0
244,-8.870229,4.122137,-10.916031,-0.913818,0.063232,0.391479,0,0,0
247,-9.206107,4.152672,-10.931298,-0.919922,0.056274,0.389038,0,0,0
250,-9.312977,4.21374,-11.053435,-0.919312,0.054321,0.388916,0,0,0
253,-9.251908,4.122137,-10.946565,-0.921875,0.050659,0.387817,0,0,0
0,-9.251908,4.091603,-10.59542,-0.919678,0.051514,0.387085,0,0,0
3,-9.007634,3.923664,-10.396947,-0.923584,0.050903,0.384033,0,0,0
6,-8.916031,3.832061,-10.305344,-0.922485,0.050903,0.385742,0,0,0
9,-8.870229,3.572519,-9.954198,-0.924927,0.046143,0.38562,0,0,0
12,-8.778626,3.236641,-9.603053,-0.922729,0.047241,0.385498,0,0,0
15,-8.549618,2.977099,-9.175573,-0.924316,0.048096,0.383301,0,0,0
18,-8.366412,2.687023,-8.900763,-0.927368,0.046997,0.38562,0,0,0
21,-8.167939,2.305344,-8.503817,-0.926392,0.041748,0.383423,0,0,0
24,-7.89313,2,-8.229008,-0.922241,0.044189,0.386719,0,0,0
27,-7.862595,1.419847,-7.908397,-0.927002,0.051147,0.386475,0,0,0
30,-7.877863,1.022901,-7.816794,-0.919678,0.050171,0.385376,0,0,0
33,-7.954198,0.900763,-7.938931,-0.918457,0.055786,0.387939,0,0,0
36,-8.21374,0.656489,-8.122137,-0.920898,0.055054,0.38855,0,0,0
39,-8.778626,0.503817,-8.381679,-0.917358,0.057739,0.387451,0,0,0
42,-9.083969,0.534351,-8.549618,-0.916138,0.057129,0.39209,0,0,0
45,-9.343511,0.732824,-8.732824,-0.917603,0.057373,0.394775,0,0,0
48,-9.541985,0.931298,-9.053435,-0.912964,0.055786,0.394897,0,0,0
51,-10.015267,1.236641,-9.419847,-0.916626,0.054688,0.394287,0,0,0
54,-10.152672,1.450382,-9.603053,-0.916138,0.051758,0.397217,0,0,0
57,-10.259542,1.755725,-9.740458,-0.914673,0.051514,0.394165,0,0,0
60,-10.320611,1.938931,-9.908397,-0.920044,0.050415,0.391846,0,0,0
63,-10.259542,2.076336,-10.030534,-0.916382,0.053345,0.393066,0,0,0
66,-10.320611,2.21374,-10.274809,-0.91687,0.053955,0.392334,0,0,0
69,-10.70229,2.351145,-10.610687,-0.912964,0.057007,0.39209,0,0,0
72,-11.022901,2.366412,-10.992366,-0.916992,0.061279,0.389404,0,0,0
75,-11.29771,2.427481,-11.267176,-0.919189,0.057861,0.387695,0,0,0
78,-12,2.335878,-11.938931,-0.9198,0.058228,0.383911,0,0,0
81,-12.717557,2.10687,-12.442748,-0.914429,0.06958,0.383179,0,0,0
84,-13.51145,1.832061,-13.419847,-0.921143,0.075562,0.378418,0,0,0
87,-15.038168,1.419847,-14.519084,-0.922729,0.078003,0.382935,0,0,0
90,-16.671756,1.129771,-15.51145,-0.921021,0.077026,0.382202,0,0,0
93,-18.152672,1.068702,-16.396947,-0.922241,0.075684,0.387451,0,0,0
96,-19.465649,0.885496,-17.526718,-0.91748,0.073364,0.383301,0,0,0
99,-20.961832,0.778626,-18.320611,-0.920776,0.07373,0.388428,0,0,0
102,-22.259542,0.80916,-19.083969,-0.91626,0.070801,0.388428,0,0,0
105,-23.557252,0.839695,-19.832061,-0.914551,0.072754,0.390747,0,0,0
108,-25.419847,1.068702,-20.396947,-0.912476,0.067505,0.393433,0,0,0
111,-26.916031,1.282443,-20.885496,-0.911987,0.071411,0.392578,0,0,0
114,-28.580153,1.648855,-21.465649,-0.913696,0.069702,0.396362,0,0,0
117,-30.290076,2.015267,-21.755725,-0.913452,0.064941,0.393677,0,0,0
120,-31.679389,2.458015,-22,-0.915161,0.061768,0.392456,0,0,0
123,-33.053435,2.946565,-22.183206,-0.91687,0.060669,0.396362,0,0,0
126,-34.59542,3.221374,-22.183206,-0.91687,0.059448,0.393799,0,0,0
129,-36.015267,3.541985,-22.229008,-0.918335,0.057373,0.391724,0,0,0
132,-37.160305,3.725191,-22.10687,-0.919067,0.056274,0.392456,0,0,0
135,-38.427481,3.89313,-22.030534,-0.9198,0.050415,0.392822,0,0,0
138,-39.282443,3.969466,-21.664122,-0.923462,0.045654,0.390869,0,0,0
141,-39.801527,4.045802,-21.099237,-0.922241,0.042969,0.391235,0,0,0
144,-40.030534,4.045802,-20.59542,-0.920532,0.039429,0.392212,0,0,0
147,-40.015267,3.954198,-20.045802,-0.920654,0.038818,0.390991,0,0,0
150,-39.603053,4.091603,-19.587786,-0.921753,0.036255,0.395508,0,0,0
153,-39.160305,4.137405,-19.114504,-0.922974,0.03894,0.394165,0,0,0
156,-38.717557,4.091603,-18.564885,-0.922363,0.045044,0.394897,0,0,0
159,-38.061069,4.320611,-18.10687,-0.9198,0.039307,0.39502,0,0,0
162,-37.480916,4.351145,-17.633588,-0.918579,0.029785,0.394653,0,0,0
165,-35.984733,4.687023,-17.419847,-0.918823,0.027954,0.397827,0,0,0
168,-34.061069,4.641221,-16.564885,-0.920654,0.033081,0.394653,0,0,0
171,-32.732824,4.625954,-15.557252,-0.917847,0.03772,0.395142,0,0,0
174,-31.40458,4.748092,-15.19084,-0.921997,0.03418,0.393555,0,0,0
177,-30.229008,4.80916,-14.335878,-0.923706,0.036865,0.39563,0,0,0
180,-28.137405,4.610687,-13.877863,-0.913818,0.028076,0.399292,0,0,0
183,-26.793893,5.007634,-13.648855,-0.919434,0.04895,0.394409,0,0,0
186,-25.78626,4.916031,-12.70229,-0.917236,0.055908,0.397339,0,0,0
189,-25.328244,4.778626,-12.870229,-0.91748,0.050659,0.393799,0,0,0
192,-24.824427,5.19084,-12.763359,-0.919189,0.050171,0.398438,0,0,0
195,-24.290076,5.206107,-12.396947,-0.914673,0.048096,0.39978,0,0,0
198,-24.091603,5.526718,-11.862595,-0.921265,0.056274,0.4021,0,0,0
201,-24.045802,5.557252,-11.129771,-0.913696,0.059937,0.399536,0,0,0
204,-23.954198,5.969466,-11.221374,-0.914795,0.066406,0.399414,0,0,0
207,-23.664122,6.274809,-11.022901,-0.91333,0.071655,0.399414,0,0,0
210,-23.755725,6.259542,-11.022901,-0.911865,0.065308,0.397583,0,0,0
213,-24.229008,6.625954,-11.007634,-0.910278,0.062988,0.399658,0,0,0
216,-24.717557,7.083969,-10.641221,-0.917603,0.080444,0.397583,0,0,0
219,-24.045802,6.396947,-9.007634,-0.915283,0.064331,0.40625,0,0,0
222,-23.664122,6.519084,-9.832061,-0.908691,0.044189,0.395142,0,0,0
225,-23.175573,6.931298,-9.175573,-0.915649,0.064209,0.403442,0,0,0
228,-22.839695,6.732824,-8.549618,-0.91394,0.050537,0.399536,0,0,0
231,-22.48855,6.992366,-7.877863,-0.913818,0.057129,0.40625,0,0,0
234,-22.061069,6.732824,-7.496183,-0.909546,0.041748,0.405151,0,0,0
237,-21.160305,7.236641,-7.847328,-0.917603,0.056396,0.406372,0,0,0
240,-20.534351,6.946565,-6.717557,-0.916748,0.064697,0.405518,0,0,0
243,-20.076336,6.625954,-5.374046,-0.915649,0.08728,0.403198,0,0,0
246,-20.366412,6.137405,-5.847328,-0.903564,0.057861,0.396484,0,0,0
249,-22.152672,7.19084,-7.374046,-0.924194,0.090088,0.403198,0,0,0
252,-22.687023,6.366412,-5.40458,-0.913208,0.08252,0.408569,0,0,0
255,-23.938931,6.931298,-6.21374,-0.915894,0.082886,0.406372,0,0,0
2,-23.801527,6.458015,-4.931298,-0.912109,0.077393,0.407349,0,0,0
5,-23.007634,6.122137,-4.641221,-0.905762,0.07019,0.413574,0,0,0
8,-22.854962,6.59542,-4.748092,-0.905762,0.073486,0.420044,0,0,0
11,-22.80916,6.732824,-4.412214,-0.918823,0.077515,0.413574,0,0,0
14,-22.167939,6.061069,-2.580153,-0.91333,0.079346,0.418091,0,0,0
17,-21.633588,5.679389,-2.351145,-0.906494,0.062256,0.398071,0,0,0
20,-21.358779,5.633588,-1.557252,-0.903198,0.075073,0.418701,0,0,0
23,-22.519084,5.89313,-2.671756,-0.90271,0.059326,0.407471,0,0,0
26,-24.259542,6.335878,-1.816794,-0.922852,0.095337,0.425537,0,0,0
29,-23.725191,5.389313,0.030534,-0.917969,0.080688,0.422363,0,0,0
32,-22.274809,4.381679,1.725191,-0.900146,0.061035,0.425293,0,0,0
35,-22.137405,5.221374,0.671756,-0.917236,0.07312,0.423462,0,0,0
38,-21.236641,4.320611,2.503817,-0.911377,0.060791,0.414307,0,0,0
41,-21.78626,4.229008,2.641221,-0.914307,0.064087,0.408325,0,0,0
44,-20.977099,3.236641,3.862595,-0.910278,0.078125,0.416992,0,0,0
47,-22.290076,3.236641,2.274809,-0.915283,0.041016,0.393188,0,0,0
50,-22.061069,3.083969,4.076336,-0.924438,0.074219,0.431885,0,0,0
53,-22.076336,2.290076,4.229008,-0.904541,0.049683,0.389282,0,0,0
56,-22.305344,2.564885,4.274809,-0.911987,0.060181,0.40979,0,0,0
59,-22.10687,1.908397,5.40458,-0.91333,0.056519,0.413452,0,0,0
62,-22.091603,1.358779,5.343511,-0.915283,0.041504,0.404419,0,0,0
65,-20.900763,0.534351,6.564885,-0.907227,0.028809,0.404053,0,0,0
68,-20.610687,0.305344,6.183206,-0.898804,0.011353,0.40332,0,0,0
71,-21.648855,1.374046,5.038168,-0.919434,0.022095,0.393799,0,0,0
74,-20.580153,0.625954,7.709924,-0.928223,0.050537,0.417847,0,0,0
77,-19.358779,0.10687,8.931298,-0.914795,0.055298,0.401733,0,0,0
80,-18.091603,-0.900763,8.183206,-0.902832,0.012085,0.380859,0,0,0
83,-19.175573,0.549618,6.580153,-0.931396,0.043335,0.399048,0,0,0
86,-18.412214,-1.221374,9.664122,-0.926758,0.070679,0.399658,0,0,0
89,-21.175573,-0.931298,7.419847,-0.906128,0.032471,0.366089,0,0,0
92,-23.679389,0.274809,4.824427,-0.924194,0.002686,0.366699,0,0,0
95,-24.80916,-0.091603,7.068702,-0.93457,0.03064,0.408936,0,0,0
98,-22.992366,-1.679389,9.587786,-0.922974,0.031494,0.417725,0,0,0
101,-23.145038,-0.931298,7.877863,-0.902588,-0.011108,0.362915,0,0,0
104,-22.656489,0.183206,6.564885,-0.930176,-0.004639,0.398193,0,0,0
107,-20.152672,-0.717557,8.564885,-0.929321,-0.014282,0.398438,0,0,0
110,-18.167939,-0.59542,10.229008,-0.925293,0.03064,0.410767,0,0,0
113,-16.687023,-1.557252,11.343511,-0.911865,-0.001587,0.377319,0,0,0
116,-15.832061,-1.221374,10.916031,-0.912964,-0.016846,0.397095,0,0,0
119,-16.763359,-0.381679,8.335878,-0.907715,-0.051636,0.358521,0,0,0
122,-17.358779,1.51145,8.152672,-0.94165,0.024292,0.421265,0,0,0
125,-16.900763,0.091603,10.122137,-0.913696,-0.040649,0.392822,0,0,0
128,-17.465649,0.977099,9.725191,-0.912109,-0.023193,0.40979,0,0,0
131,-17.19084,1.648855,8.167939,-0.918091,-0.038452,0.366333,0,0,0
134,-17.496183,2.244275,9.038168,-0.940063,-0.000854,0.386841,0,0,0
137,-14.70229,-0.564885,13.053435,-0.917969,-0.002197,0.390869,0,0,0
140,-13.557252,-0.122137,11.603053,-0.890137,-0.039062,0.374634,0,0,0
143,-13.89313,2.21374,9.160305,-0.922241,0.021973,0.404175,0,0,0
146,-14.580153,1.251908,9.801527,-0.912598,0.014526,0.379272,0,0,0
149,-17.389313,1.984733,8.137405,-0.915527,0.024048,0.38562,0,0,0
152,-20.549618,2.091603,8.091603,-0.933594,0.053955,0.382935,0,0,0
155,-21.40458,0.320611,10.122137,-0.901367,0.0271,0.397461,0,0,0
158,-22.992366,2.305344,6.534351,-0.910645,0.013306,0.397217,0,0,0
161,-23.282443,1.801527,7.816794,-0.927246,0.053101,0.414185,0,0,0
164,-21.419847,0.366412,10.076336,-0.913696,0.034668,0.41333,0,0,0
167,-20.305344,0.366412,8.671756,-0.907959,0.002686,0.370605,0,0,0
170,-19.969466,0.442748,9.389313,-0.917969,0.029053,0.401367,0,0,0
173,-20.198473,1.206107,9.755725,-0.925293,0.030762,0.410645,0,0,0
176,-20.381679,0.793893,10.122137,-0.907471,0.020264,0.398682,0,0,0
179,-22,1.29771,9.709924,-0.920776,0.014404,0.420166,0,0,0
182,-21.923664,1.374046,9.770992,-0.911011,-0.000854,0.384521,0,0,0
185,-21.587786,2.137405,10.717557,-0.921875,0.019409,0.424072,0,0,0
188,-20.534351,1.007634,12.198473,-0.902954,0.00708,0.40271,0,0,0
191,-22.564885,2.717557,8.687023,-0.901123,-0.02832,0.375366,0,0,0
194,-23.572519,3.633588,9.099237,-0.930542,0.002197,0.415894,0,0,0
197,-22.748092,3.007634,10.824427,-0.913208,-0.01123,0.403931,0,0,0
200,-21.29771,3.40458,10.076336,-0.913818,-0.006226,0.39978,0,0,0
203,-19.755725,1.938931,11.480916,-0.894043,0.002563,0.399414,0,0,0
206,-21.51145,3.847328,9.389313,-0.922974,0.011108,0.401245,0,0,0
209,-21.358779,1.954198,11.496183,-0.913574,0.025391,0.408203,0,0,0
212,-22.427481,2.671756,9.450382,-0.901489,-0.028809,0.354736,0,0,0
215,-24.122137,4.122137,7.877863,-0.913086,-0.015503,0.389893,0,0,0
218,-25.312977,4.824427,7.419847,-0.927368,-0.007568,0.389404,0,0,0
221,-25.160305,3.954198,8.564885,-0.908813,-0.043823,0.383789,0,0,0
224,-24.793893,5.496183,6.961832,-0.922363,-0.051758,0.406494,0,0,0
227,-22.977099,4.931298,7.770992,-0.914062,-0.059814,0.389404,0,0,0
230,-20.030534,5.267176,9.89313,-0.939331,-0.00415,0.45752,0,0,0
233,-15.816794,2.519084,12.442748,-0.909668,-0.050781,0.385376,0,0,0
236,-12.59542,2.442748,13.022901,-0.908203,0.003784,0.436279,0,0,0
239,-13.007634,3.679389,10.152672,-0.892456,-0.066528,0.335083,0,0,0
242,-15.847328,6.519084,7.877863,-0.94519,-0.032471,0.37439,0,0,0
245,-15.877863,5.022901,11.832061,-0.96228,0.007568,0.410522,0,0,0
248,-13.465649,1.633588,14.564885,-0.897827,-0.019409,0.381592,0,0,0
251,-12.59542,3.969466,12.503817,-0.907349,-0.017212,0.396484,0,0,0
254,-10.030534,2.351145,14.48855,-0.914917,0.005981,0.39502,0,0,0
1,-10.274809,3.29771,12.519084,-0.907593,-0.008911,0.375732,0,0,0
4,-12.763359,4.961832,10.198473,-0.904663,-0.031006,0.3573,0,0,0
7,-13.862595,6.534351,9.938931,-0.952881,0.000244,0.455078,0,0,0
10,-13.633588,5.19084,11.633588,-0.930298,-0.016602,0.387817,0,0,0
13,-12.687023,4.335878,13.022901,-0.921143,0.015503,0.420288,0,0,0
16,-10.366412,3.709924,13.709924,-0.904663,-0.031128,0.398315,0,0,0
19,-9.465649,4.396947,11.679389,-0.898682,-0.052979,0.349731,0,0,0
22,-9.282443,6.59542,10.305344,-0.955444,-0.012207,0.42041,0,0,0
25,-7.358779,2.870229,15.038168,-0.94165,-0.004517,0.423584,0,0,0
28,-4.916031,1.908397,15.465649,-0.904541,-0.028198,0.406128,0,0,0
31,-3.419847,2.229008,14.900763,-0.9104,-0.017578,0.383423,0,0,0
34,-1.083969,0.763359,16.977099,-0.932983,0.018677,0.459351,0,0,0
37,1.618321,-0.366412,16.793893,-0.904175,-0.015747,0.400635,0,0,0
40,3.709924,0.274809,16.870229,-0.932129,0.050293,0.459351,0,0,0
43,4.824427,-1.221374,17.801527,-0.897461,0.008301,0.370239,0,0,0
46,0.946565,-1.038168,15.664122,-0.877197,0.015259,0.341064,0,0,0
49,-5.40458,3.374046,10.610687,-0.946167,0.03479,0.384277,0,0,0
52,-7.29771,0.503817,12.854962,-0.940186,0.032593,0.404175,0,0,0
55,-7.557252,-0.656489,13.816794,-0.913086,0.015015,0.417969,0,0,0
58,-7.480916,0.503817,11.984733,-0.907471,0.004517,0.402588,0,0,0
61,-5.709924,-0.519084,11.89313,-0.906128,-0.000244,0.407227,0,0,0
64,-3.984733,-1.083969,12.351145,-0.917358,0.0177,0.43335,0,0,0
67,-0.366412,-2.961832,14.519084,-0.897827,0.046875,0.461914,0,0,0
70,-0.870229,-2.48855,12.473282,-0.886475,0.009277,0.378906,0,0,0
73,-3.450382,-1.389313,11.648855,-0.906372,0.028931,0.435303,0,0,0
76,-6.015267,-0.503817,10.854962,-0.920532,0.030273,0.408203,0,0,0
79,-7.053435,-1.862595,11.083969,-0.903076,0.033936,0.383179,0,0,0
82,-9.740458,-0.244275,9.526718,-0.915894,0.035156,0.4104,0,0,0
85,-9.969466,-2.351145,11.725191,-0.927979,0.070068,0.501709,0,0,0
88,-7.496183,-5.389313,14.549618,-0.907959,0.067017,0.455933,0,0,0
91,-4.427481,-6.824427,12.870229,-0.871216,0.022095,0.398071,0,0,0
94,-7.358779,-2.198473,8.900763,-0.912231,0.014648,0.355835,0,0,0
97,-9.847328,-3.78626,8.946565,-0.914062,0.02832,0.351807,0,0,0
100,-14.305344,-0.900763,7.175573,-0.92688,0.02417,0.401367,0,0,0
103,-16.564885,-0.748092,6.977099,-0.93335,0.029297,0.388428,0,0,0
106,-17.022901,-1.984733,8.122137,-0.924805,0.040527,0.398438,0,0,0
109,-16.519084,-3.877863,8.564885,-0.907227,0.044312,0.407104,0,0,0
112,-14.992366,-5.282443,9.083969,-0.931885,0.081787,0.434082,0,0,0
115,-13.877863,-9.648855,11.679389,-0.888306,0.100098,0.409058,0,0,0
118,-14.167939,-7.954198,9.068702,-0.908081,0.051392,0.405273,0,0,0
121,-16.320611,-8.412214,8.320611,-0.896362,0.057739,0.331543,0,0,0
124,-23.435115,-3.78626,4.48855,-0.940918,0.067505,0.362915,0,0,0
127,-28.122137,-6.152672,6.076336,-0.942139,0.081299,0.393188,0,0,0
130,-30.992366,-6.564885,6.717557,-0.928101,0.069946,0.443848,0,0,0
133,-28.244275,-9.160305,8.366412,-0.9021,0.031616,0.450317,0,0,0
136,-24.625954,-9.374046,7.969466,-0.912109,0.011353,0.439819,0,0,0
139,-19.480916,-11.51145,10.427481,-0.935181,0.037964,0.431519,0,0,0
142,-15.29771,-15.114504,13.89313,-0.880493,0.047974,0.398438,0,0,0
145,-15.526718,-12.748092,11.557252,-0.885376,0.024414,0.397461,0,0,0
148,-19.022901,-9.664122,9.847328,-0.908447,0.015015,0.373047,0,0,0
151,-24.244275,-6.442748,6.381679,-0.93335,-0.009766,0.341675,0,0,0
154,-27.908397,-7.267176,8.671756,-0.947266,0.028564,0.434692,0,0,0
157,-28.167939,-6.656489,8.198473,-0.935913,0.00354,0.420166,0,0,0
160,-26.366412,-9.312977,10.427481,-0.905396,0.013062,0.449829,0,0,0
163,-23.267176,-9.129771,10.458015,-0.917236,-0.002197,0.421387,0,0,0
166,-20.091603,-9.984733,10.671756,-0.876709,-0.042969,0.348511,0,0,0
169,-20.091603,-6.870229,8.122137,-0.92981,-0.005859,0.388306,0,0,0
172,-20.10687,-6.763359,8.717557,-0.895264,-0.028076,0.339844,0,0,0
175,-23.648855,-4.091603,6.778626,-0.947876,0.007324,0.432495,0,0,0
178,-24.183206,-5.847328,8.900763,-0.902466,-0.019409,0.394043,0,0,0
181,-24.015267,-4.137405,7.328244,-0.908936,-0.018555,0.397705,0,0,0
184,-21.541985,-5.679389,9.19084,-0.926636,0.004272,0.427124,0,0,0
187,-18.70229,-7.160305,9.984733,-0.896851,-0.016357,0.410278,0,0,0
190,-15.236641,-7.541985,10.519084,-0.891724,-0.002808,0.400635,0,0,0
193,-15.374046,-6.59542,10.274809,-0.905884,0.033936,0.408081,0,0,0
196,-18.076336,-6.885496,10.152672,-0.913452,0.026367,0.386963,0,0,0
199,-19.725191,-5.053435,7.328244,-0.865234,-0.03479,0.316772,0,0,0
202,-25.099237,0.274809,4.229008,-0.976318,0.019409,0.456543,0,0,0
205,-23.221374,-5.221374,7.89313,-0.890503,-0.047119,0.368286,0,0,0
208,-25.801527,2.48855,2.366412,-0.890015,-0.057617,0.362183,0,0,0
211,-24.244275,-1.236641,6.625954,-0.952759,0.013062,0.498291,0,0,0
214,-22.259542,-2.412214,7.984733,-0.867188,-0.091553,0.345093,0,0,0
217,-20.503817,0.045802,7.328244,-0.92688,-0.035889,0.451782,0,0,0
220,-16.137405,-1.78626,8.961832,-0.902832,-0.040283,0.402588,0,0,0
223,-14.48855,-1.328244,9.694656,-0.931396,-0.015503,0.450806,0,0,0
226,-13.908397,0.244275,7.206107,-0.882935,-0.093872,0.286621,0,0,0
229,-17.725191,5.328244,5.557252,-0.919434,-0.024048,0.348511,0,0,0
232,-19.557252,5.984733,6.519084,-0.945801,-0.017334,0.447021,0,0,0
235,-21.175573,8.641221,4.748092,-0.908569,-0.098389,0.307129,0,0,0
238,-20.656489,10.335878,5.450382,-0.951294,-0.010864,0.411133,0,0,0
241,-18.534351,8.900763,7.984733,-0.92688,-0.054199,0.40686,0,0,0
244,-15.129771,6.992366,8.916031,-0.914673,-0.020996,0.400757,0,0,0
247,-11.267176,3.282443,11.068702,-0.933105,0.012939,0.460449,0,0,0
250,-7.618321,-0.458015,13.389313,-0.877808,0.021362,0.443481,0,0,0
253,-8.061069,3.374046,11.267176,-0.903076,-0.003174,0.380249,0,0,0
0,-8.351145,-0.503817,12.793893,-0.932129,0.077148,0.466919,0,0,0
3,-10.259542,1.877863,11.282443,-0.868774,-0.025024,0.285767,0,0,0
6,-15.618321,7.862595,8.335878,-0.914795,0.002319,0.357178,0,0,0
9,-17.450382,7.78626,8.091603,-0.972412,0.000732,0.429077,0,0,0
12,-18.21374,8.366412,9.969466,-0.925171,-0.035767,0.420898,0,0,0
15,-14.59542,4.671756,13.328244,-0.929565,0.007812,0.53125,0,0,0
18,-10.946565,6.396947,12.564885,-0.819336,-0.090698,0.30481,0,0,0
21,-7.877863,7.984733,9.89313,-0.947754,-0.002075,0.468262,0,0,0
24,-5.770992,4.70229,11.480916,-0.921875,-0.001221,0.406616,0,0,0
27,-8.183206,3.557252,11.51145,-0.953735,0.014404,0.43457,0,0,0
30,-7.770992,-2.961832,13.343511,-0.895874,0.016968,0.343506,0,0,0
33,-12.335878,2.396947,9.51145,-0.880127,-0.020386,0.2677,0,0,0
36,-15.557252,6.839695,8.122137,-0.964478,-0.028564,0.404175,0,0,0
39,-14.198473,4.152672,10.656489,-0.931763,-0.053711,0.429565,0,0,0
42,-13.038168,6.916031,9.89313,-0.928711,-0.055786,0.428101,0,0,0
45,-9.099237,0.351145,12.167939,-0.922241,-0.040283,0.445679,0,0,0
48,-5.740458,-0.015267,12.59542,-0.906372,-0.017578,0.415527,0,0,0
51,-5.541985,0.992366,11.450382,-0.892578,-0.062866,0.312866,0,0,0
54,-4.412214,0.503817,11.068702,-0.924072,-0.039185,0.43042,0,0,0
57,-4.183206,3.145038,11.526718,-0.890869,-0.047974,0.335449,0,0,0
60,-4.21374,6.076336,9.557252,-0.951294,-0.049072,0.353149,0,0,0
63,-5.374046,3.343511,12.503817,-0.957642,-0.006836,0.461548,0,0,0
66,-4.549618,-0.244275,15.007634,-0.932495,-0.000244,0.444458,0,0,0
69,-3.328244,-3.389313,15.51145,-0.883301,-0.00647,0.369751,0,0,0
72,-1.679389,-2,14.030534,-0.898438,-0.032959,0.351807,0,0,0
75,-2.412214,-1.480916,13.89313,-0.924316,0.013428,0.366089,0,0,0
78,-5.908397,3.633588,12.778626,-0.905029,-0.020996,0.285767,0,0,0
81,-9.664122,4.656489,11.770992,-0.970947,0.001343,0.411011,0,0,0
84,-11.29771,2.442748,13.251908,-0.948975,-0.02124,0.419312,0,0,0
87,-9.206107,-3.068702,13.51145,-0.948853,-0.004761,0.527222,0,0,0
90,-4.610687,-12.580153,16.580153,-0.926392,-0.007935,0.549194,0,0,0
93,0.977099,-13.618321,17.145038,-0.81665,-0.050049,0.32373,0,0,0
96,0.458015,-7.267176,14.10687,-0.892944,-0.028687,0.341431,0,0,0
99,-1.664122,-2,13.328244,-0.93042,-0.025879,0.29834,0,0,0
102,-6.091603,3.068702,11.450382,-1.010376,-0.029419,0.427002,0,0,0
105,-6.916031,-4.366412,13.847328,-0.980713,0.010986,0.452393,0,0,0
108,-3.343511,-12.305344,16.229008,-0.928345,-0.01416,0.550415,0,0,0
111,-0.503817,-15.19084,16.687023,-0.827148,-0.045166,0.320068,0,0,0
114,2.824427,-12.244275,14.610687,-0.872803,-0.071411,0.328369,0,0,0
117,3.877863,-11.587786,14.885496,-0.916748,-0.024292,0.419312,0,0,0
120,2.80916,-6.320611,13.572519,-0.894653,-0.040894,0.328735,0,0,0
123,0.580153,-1.709924,12.137405,-0.969116,-0.021729,0.42395,0,0,0
126,-1.526718,-2.656489,13.221374,-0.95166,-0.02124,0.395386,0,0,0
129,-3.175573,-3.358779,13.435115,-0.920898,-0.022095,0.379883,0,0,0
132,-2.778626,-7.969466,13.618321,-0.93335,-0.012085,0.490479,0,0,0
135,0.030534,-10.534351,14.259542,-0.898926,-0.03833,0.392944,0,0,0
138,2.381679,-15.496183,14.839695,-0.87561,-0.005737,0.422974,0,0,0
141,3.526718,-9.114504,14.045802,-0.871338,-0.05896,0.313965,0,0,0
144,4.21374,-6.21374,12.916031,-0.921265,-0.025024,0.330322,0,0,0
147,3.419847,-5.633588,13.29771,-0.971436,0.00708,0.448486,0,0,0
150,1.832061,-9.389313,14.381679,-0.911987,0.013184,0.419189,0,0,0
153,0.229008,-8.167939,13.114504,-0.896484,-0.001465,0.397461,0,0,0
156,-1.89313,-5.51145,12.10687,-0.900269,0.006348,0.339355,0,0,0
159,-2.396947,-6.961832,12.229008,-0.905396,0.007202,0.358643,0,0,0
162,-3.343511,-2.671756,12.229008,-0.937988,-0.014893,0.417114,0,0,0
165,-4.274809,-2.885496,12.198473,-0.915527,-0.012207,0.345947,0,0,0
168,-3.938931,-1.480916,11.51145,-0.945801,-0.011475,0.403442,0,0,0
171,-2.610687,-6.641221,12.045802,-0.931519,0.000244,0.441772,0,0,0
174,-1.832061,-4.748092,12.229008,-0.889038,-0.01001,0.32666,0,0,0
177,-1.389313,-6.564885,11.083969,-0.944092,-0.013184,0.426392,0,0,0
180,-0.244275,-6.992366,12.229008,-0.922363,-0.031128,0.36731,0,0,0
183,0.580153,-5.557252,12.167939,-0.908936,-0.020264,0.359619,0,0,0
186,-0.48855,-0.641221,12.10687,-0.94104,-0.00415,0.361694,0,0,0
189,-2.335878,-2.854962,12.687023,-0.949707,0.011475,0.425171,0,0,0
192,-1.083969,0.030534,13.145038,-0.895752,-0.016968,0.288574,0,0,0
195,-3.587786,-2.030534,11.89313,-0.976196,0.012085,0.488037,0,0,0
198,-2.137405,-6.10687,12.793893,-0.897095,-0.009644,0.360962,0,0,0
201,-1.419847,-0.854962,11.29771,-0.890503,-0.032349,0.31189,0,0,0
204,-1.19084,-0.381679,10.870229,-0.98999,0.001831,0.472778,0,0,0
207,0.519084,-10.671756,11.343511,-0.917603,0.003662,0.439819,0,0,0
210,1.389313,-4.59542,11.89313,-0.884644,-0.028809,0.330078,0,0,0
213,0.503817,1.587786,11.358779,-0.914307,0.015869,0.255127,0,0,0
216,-1.282443,3.099237,11.053435,-0.930786,0.015869,0.247925,0,0,0
219,-2.961832,4.198473,9.694656,-0.994629,-0.005737,0.446289,0,0,0
222,-0.458015,-6.183206,9.312977,-0.967163,-0.018311,0.544922,0,0,0
225,3.389313,-9.053435,9.908397,-0.851807,-0.028076,0.290649,0,0,0
228,3.908397,-7.954198,8.519084,-0.896484,0.013672,0.356323,0,0,0
231,1.694656,-0.427481,10.137405,-0.915894,0.018799,0.252563,0,0,0
234,-0.763359,2.59542,8.916031,-0.973877,0.028442,0.321533,0,0,0
237,-3.038168,1.206107,9.465649,-0.980225,0.031372,0.356934,0,0,0
240,-4.396947,-3.633588,8.412214,-0.923096,0.009277,0.375732,0,0,0
243,-3.053435,-9.648855,7.435115,-0.948486,-0.029419,0.540405,0,0,0
246,0.320611,-10.442748,9.419847,-0.838257,-0.007446,0.25769,0,0,0
249,1.40458,-7.465649,8.229008,-0.965698,-0.023438,0.443848,0,0,0
252,2.137405,-10.48855,9.29771,-0.910889,0.019287,0.337036,0,0,0
255,3.251908,-7.770992,10.229008,-0.965088,-0.040649,0.42981,0,0,0
2,3.801527,-6.351145,10.839695,-0.935669,-0.00708,0.331299,0,0,0
5,3.847328,-10.427481,9.389313,-0.977783,-0.001953,0.48645,0,0,0
8,4.427481,-14.290076,11.175573,-0.884521,0.012085,0.323242,0,0,0
11,3.114504,-7.938931,11.465649,-0.882935,0.002319,0.290527,0,0,0
14,4.351145,-10.10687,9.89313,-0.949219,-0.012329,0.42041,0,0,0
17,5.938931,-5.801527,12.259542,-0.912598,-0.009277,0.341797,0,0,0
20,6.198473,-5.725191,11.938931,-0.963745,-0.011108,0.403198,0,0,0
23,6.290076,-14.656489,11.465649,-0.957397,-0.003418,0.525635,0,0,0
26,6.763359,-15.664122,12.900763,-0.858643,-0.011597,0.351685,0,0,0
29,9.053435,-11.664122,13.053435,-0.903564,-0.034302,0.377197,0,0,0
32,10.137405,-11.022901,13.908397,-0.926636,-0.016235,0.429688,0,0,0
35,11.236641,-8.320611,14.946565,-0.912964,-0.006104,0.377686,0,0,0
38,11.694656,-16.167939,12,-0.955811,-0.032104,0.559082,0,0,0
41,13.496183,-17.877863,14.580153,-0.856812,-0.000732,0.338379,0,0,0
44,14.030534,-8.305344,16.625954,-0.887329,-0.009399,0.315918,0,0,0
47,15.236641,-11.221374,13.312977,-1.000122,-0.033203,0.572144,0,0,0
50,15.816794,-13.496183,14.824427,-0.918213,0.018188,0.456909,0,0,0
53,14.641221,-23.129771,12.183206,-0.908936,-0.003174,0.548218,0,0,0
56,13.083969,-21.496183,13.145038,-0.853271,0.010376,0.456421,0,0,0
59,12.137405,-23.175573,11.816794,-0.920044,0.006714,0.489258,0,0,0
62,11.770992,-25.862595,11.221374,-0.858032,0.005371,0.403198,0,0,0
65,11.862595,-14.900763,12.839695,-0.870605,0.027954,0.326538,0,0,0
68,12.045802,-18.274809,10.290076,-0.965088,0.023071,0.446045,0,0,0
71,11.633588,-18.091603,11.572519,-0.869141,0.050537,0.356445,0,0,0
74,12.381679,-6.80916,13.496183,-0.885742,0.034668,0.31604,0,0,0
77,9.419847,-14.946565,10.21374,-0.996948,0.027344,0.562012,0,0,0
80,8.885496,-22.610687,10.870229,-0.901611,0.006348,0.526489,0,0,0
83,7.114504,-32.198473,8.244275,-0.892456,-0.008423,0.539551,0,0,0
86,8.152672,-29.496183,10.717557,-0.825684,-0.01416,0.351562,0,0,0
89,11.129771,-20.870229,12.793893,-0.858521,0.034546,0.25293,0,0,0
92,12.946565,-13.358779,14.076336,-0.998291,-0.005371,0.454468,0,0,0
95,13.587786,-19.175573,12.229008,-0.906738,0.085327,0.298218,0,0,0
98,14.137405,-17.083969,12.580153,-0.941528,0.015625,0.449219,0,0,0
101,12.198473,-25.022901,9.40458,-0.927002,0.045288,0.484741,0,0,0
104,8.778626,-32.732824,7.984733,-0.894287,0.060913,0.479248,0,0,0
107,7.480916,-32.778626,7.541985,-0.860107,0.011475,0.467285,0,0,0
110,6.992366,-30.977099,7.847328,-0.87085,0.035034,0.366577,0,0,0
113,7.755725,-29.816794,7.78626,-0.887207,0.053223,0.327515,0,0,0
116,9.648855,-24.244275,8.992366,-0.91394,0.04895,0.383911,0,0,0
119,9.175573,-24.687023,6.427481,-0.95752,0.04541,0.519409,0,0,0
122,7.251908,-28.59542,6.167939,-0.910767,0.058472,0.429077,0,0,0
125,5.160305,-26.335878,7.221374,-0.885376,0.083984,0.349365,0,0,0
128,1.648855,-33.022901,3.083969,-0.947632,0.034668,0.512817,0,0,0
131,1.374046,-37.19084,3.083969,-0.885376,0.036011,0.47876,0,0,0
134,2.274809,-35.908397,3.145038,-0.893799,0.014282,0.467529,0,0,0
137,2.625954,-39.694656,1.358779,-0.900879,0.046753,0.426392,0,0,0
140,5.114504,-32.916031,4.381679,-0.882812,0.058228,0.360474,0,0,0
143,6.015267,-30.167939,3.083969,-0.914307,0.078613,0.380737,0,0,0
146,2.961832,-31.160305,1.938931,-0.97644,0.079956,0.509766,0,0,0
149,0.290076,-32.580153,1.312977,-0.868042,0.092407,0.344971,0,0,0
152,0.320611,-31.740458,0.305344,-0.904053,0.079712,0.3573,0,0,0
155,-1.740458,-28.412214,1.282443,-0.92627,0.098145,0.420166,0,0,0
158,-2.152672,-29.572519,0.274809,-0.912109,0.056763,0.368896,0,0,0
161,-2.427481,-26.458015,0.381679,-0.892456,0.085083,0.307129,0,0,0
164,-1.984733,-25.251908,1.572519,-0.93335,0.081787,0.356567,0,0,0
167,-1.664122,-25.954198,2,-0.952271,0.049805,0.439819,0,0,0
170,-0.854962,-25.435115,-0.427481,-0.920898,-0.00708,0.484985,0,0,0
173,-0.931298,-30.396947,-1.51145,-0.920288,0.057739,0.429688,0,0,0
176,-2.305344,-28.122137,1.664122,-0.882446,0.043579,0.339355,0,0,0
179,0.458015,-24.549618,0.748092,-0.93457,-0.002319,0.402222,0,0,0
182,2.885496,-20.70229,3.877863,-0.905029,0.054077,0.263062,0,0,0
185,5.465649,-17.267176,3.022901,-0.975098,0.002686,0.415771,0,0,0
188,6.961832,-19.755725,4.351145,-0.94165,0.05188,0.409424,0,0,0
191,6.396947,-20.244275,6.305344,-0.931152,0.000488,0.429443,0,0,0
194,6.335878,-23.19084,5.068702,-0.934326,-0.007935,0.495239,0,0,0
197,5.282443,-29.374046,4.396947,-0.893433,0.018433,0.431396,0,0,0
200,9.389313,-25.358779,8.961832,-0.855347,-0.033813,0.331055,0,0,0
203,12.21374,-16.70229,11.099237,-0.903442,0.008667,0.320557,0,0,0
206,14.763359,-18.931298,10.732824,-0.975586,-0.011353,0.482422,0,0,0
209,16.198473,-19.755725,11.374046,-0.890015,0.013428,0.367798,0,0,0
212,16.961832,-16.290076,11.664122,-0.902222,0.023315,0.393311,0,0,0
215,15.221374,-21.358779,9.435115,-0.944946,0.005859,0.51709,0,0,0
218,15.083969,-27.648855,9.19084,-0.90271,-0.019775,0.50293,0,0,0
221,15.725191,-26.625954,10.854962,-0.865601,-0.007202,0.415649,0,0,0
224,17.114504,-23.832061,11.877863,-0.90332,-0.00354,0.404785,0,0,0
227,18.564885,-21.938931,12.580153,-0.907104,0.010498,0.407104,0,0,0
230,19.557252,-17.343511,14.335878,-0.915283,0.046021,0.37207,0,0,0
233,19.022901,-16.59542,13.648855,-0.940674,0.028076,0.438843,0,0,0
236,16.366412,-22.961832,10.946565,-0.9021,0.081665,0.370728,0,0,0
239,15.221374,-21.770992,11.709924,-0.888672,0.026978,0.433105,0,0,0
242,14.335878,-22.900763,10.473282,-0.921509,0.00061,0.479004,0,0,0
245,14.961832,-19.160305,13.083969,-0.900024,0.008667,0.42981,0,0,0
248,15.648855,-24.824427,9.725191,-0.908203,-0.007324,0.430786,0,0,0
251,15.923664,-25.603053,9.251908,-0.87146,0.021729,0.399902,0,0,0
254,18.534351,-19.251908,14.229008,-0.891968,-0.013916,0.415771,0,0,0
1,18.564885,-20.748092,11.740458,-0.918213,-0.007568,0.439575,0,0,0
4,19.78626,-23.038168,11.847328,-0.875977,0.019287,0.358887,0,0,0
7,19.435115,-20.80916,12.931298,-0.912476,-0.00415,0.459473,0,0,0
10,18.122137,-22.259542,10.351145,-0.897095,0.039673,0.395264,0,0,0
13,16.946565,-21.587786,11.633588,-0.897583,0.033081,0.421387,0,0,0
16,17.221374,-16.015267,13.465649,-0.87915,0.071167,0.343628,0,0,0
19,17.40458,-12.931298,12.320611,-0.927856,0.040283,0.432007,0,0,0
22,15.236641,-14.290076,10.427481,-0.94751,0.048706,0.489868,0,0,0
25,13.877863,-19.312977,8.366412,-0.924927,0.015381,0.494141,0,0,0
28,12.732824,-26.549618,3.908397,-0.894653,-0.026489,0.527832,0,0,0
31,12.045802,-23.78626,6.961832,-0.844727,0.021484,0.386963,0,0,0
34,12.992366,-20.152672,8.122137,-0.890503,-0.010254,0.412476,0,0,0
37,15.862595,-20.503817,7.29771,-0.916504,0.00061,0.467285,0,0,0
40,15.938931,-26.351145,5.51145,-0.890991,0.01416,0.429688,0,0,0
43,16.671756,-21.694656,8.137405,-0.891235,0.036377,0.453735,0,0,0
46,16.671756,-20.778626,7.389313,-0.895996,0.039673,0.395874,0,0,0
49,13.954198,-28.030534,2.610687,-0.930176,0.013184,0.549927,0,0,0
52,12.961832,-27.343511,3.832061,-0.857422,0.063477,0.379028,0,0,0
55,14.580153,-15.664122,8.793893,-0.887817,0.051025,0.403076,0,0,0
58,11.679389,-22.854962,2.198473,-0.960815,0.032959,0.556641,0,0,0
61,12.687023,-16.10687,6.70229,-0.843872,0.098877,0.319702,0,0,0
64,12.152672,-15.755725,2.381679,-0.938965,0.059937,0.459961,0,0,0
67,8.045802,-21.068702,0.793893,-0.920776,0.069946,0.474121,0,0,0
70,7.267176,-17.419847,2.229008,-0.857666,0.078857,0.342896,0,0,0
73,5.267176,-17.954198,-1.312977,-0.942505,0.041382,0.512939,0,0,0
76,1.358779,-22.305344,-2.427481,-0.870728,0.109497,0.372925,0,0,0
79,2.503817,-18.167939,-0.10687,-0.869751,0.051147,0.369629,0,0,0
82,6.259542,-9.755725,2.641221,-0.898193,0.056885,0.394897,0,0,0
85,6.396947,-12.366412,-0.381679,-0.929077,0.115723,0.393188,0,0,0
88,4.335878,-15.312977,-1.038168,-0.913818,0.098022,0.445435,0,0,0
91,0.305344,-15.40458,-1.068702,-0.883423,0.104248,0.381104,0,0,0
94,1.206107,-13.877863,-0.854962,-0.906616,0.040405,0.441772,0,0,0
97,2.381679,-13.51145,-0.061069,-0.882202,0.067993,0.362793,0,0,0
100,4.152672,-14.076336,0.80916,-0.920898,0.011841,0.472778,0,0,0
103,5.969466,-17.282443,-1.938931,-0.91394,0.009644,0.510498,0,0,0
106,7.29771,-16.763359,-0.366412,-0.89917,-0.003418,0.511841,0,0,0
109,4.717557,-21.694656,-3.51145,-0.909302,0.010498,0.512695,0,0,0
112,7.251908,-18.137405,1.29771,-0.837524,0.04895,0.317261,0,0,0
115,11.40458,-18.48855,0.839695,-0.924194,-0.022583,0.509399,0,0,0
118,10.122137,-19.954198,-0.992366,-0.928345,0.042114,0.527588,0,0,0
121,13.969466,-19.603053,1.496183,-0.88562,0.008667,0.452881,0,0,0
124,12.229008,-23.725191,-1.496183,-0.87146,0.082886,0.354126,0,0,0
127,14.70229,-18.412214,4.381679,-0.883911,0.010376,0.44104,0,0,0
130,15.603053,-19.175573,0.320611,-0.908325,0.03833,0.447754,0,0,0
133,14.259542,-19.969466,2.610687,-0.906006,0.077881,0.454956,0,0,0
136,11.328244,-27.053435,-1.328244,-0.909058,-0.020264,0.516235,0,0,0
139,11.068702,-27.022901,-2.412214,-0.858398,0.034546,0.429321,0,0,0
142,11.312977,-24.641221,-0.412214,-0.896729,0.018433,0.45813,0,0,0
145,13.740458,-22.916031,0.885496,-0.89978,0.022705,0.445801,0,0,0
148,16.824427,-24.152672,0.946565,-0.905029,0.031494,0.423828,0,0,0
151,16.320611,-25.038168,0.59542,-0.907227,0.031982,0.470825,0,0,0
154,15.083969,-30.625954,-2.885496,-0.893311,0.040039,0.446289,0,0,0
157,15.328244,-23.725191,2.931298,-0.850952,0.08374,0.376343,0,0,0
160,15.358779,-26.916031,-0.519084,-0.886475,0.058228,0.355225,0,0,0
163,20.870229,-20.625954,4.793893,-0.881958,0.085449,0.378296,0,0,0
166,20.290076,-20.167939,4.10687,-0.909302,0.092285,0.418701,0,0,0
169,18.015267,-23.236641,1.984733,-0.924805,0.060181,0.519287,0,0,0
172,12.900763,-27.648855,-0.824427,-0.880493,0.08313,0.42981,0,0,0
175,12.977099,-21.618321,4.045802,-0.860596,0.083618,0.392944,0,0,0
178,9.206107,-30.70229,-5.038168,-0.910278,-0.00708,0.474487,0,0,0
181,13.648855,-22.061069,4.198473,-0.835205,0.11145,0.350464,0,0,0
184,15.954198,-21.725191,2.931298,-0.907104,-0.011475,0.452393,0,0,0
187,16.442748,-24.229008,-0.442748,-0.906006,0.076782,0.46106,0,0,0
190,16.396947,-24.839695,1.877863,-0.878418,0.064331,0.431641,0,0,0
193,13.251908,-24.152672,1.450382,-0.910278,0.070923,0.470093,0,0,0
196,13.267176,-24.061069,0.59542,-0.906616,0.034912,0.490112,0,0,0
199,16.229008,-22.442748,1.29771,-0.879883,0.062378,0.401489,0,0,0
202,17.847328,-23.19084,1.053435,-0.911377,0.028076,0.466064,0,0,0
205,18.900763,-27.236641,-1.541985,-0.918213,0.031372,0.49939,0,0,0
208,16.732824,-27.312977,0.931298,-0.898315,0.033203,0.490723,0,0,0
211,13.709924,-35.389313,-1.358779,-0.972046,-0.010498,0.592773,0,0,0
214,12.793893,-28.305344,-6.274809,-0.740845,0.072144,0.333984,0,0,0
217,12.442748,-29.29771,0.473282,-0.92749,0.045044,0.465088,0,0,0
220,17.78626,-37.648855,8.21374,-0.998169,-0.082764,0.616455,0,0,0
223,24.732824,-50.366412,8.320611,-0.911865,-0.08606,0.500244,0,0,0
226,28.80916,-44.534351,1.129771,-0.755859,-0.003296,0.363281,0,0,0
229,29.114504,-29.129771,-8.244275,-0.82605,0.049316,0.469727,0,0,0
232,22.870229,-34.091603,-7.587786,-0.953247,0.101196,0.47998,0,0,0
235,18.870229,-31.664122,-7.832061,-0.826904,0.137085,0.356934,0,0,0
238,14.198473,-31.053435,-15.129771,-0.910156,0.049927,0.515991,0,0,0
241,8.167939,-38.641221,-14,-0.930054,0.104248,0.48999,0,0,0
244,10.931298,-36.839695,-8.015267,-0.868042,0.011353,0.470337,0,0,0
247,11.709924,-41.984733,-9.053435,-0.903442,-0.034546,0.477905,0,0,0
250,15.40458,-40.977099,-9.908397,-0.862061,-0.018921,0.513794,0,0,0
253,19.664122,-38.396947,-6.458015,-0.864136,0.029663,0.434692,0,0,0
0,22.244275,-40.778626,-4.519084,-0.901733,-0.004395,0.442261,0,0,0
3,23.160305,-44.091603,-8.48855,-0.907593,-0.020996,0.536987,0,0,0
6,21.450382,-44.396947,-6.732824,-0.884033,0.084106,0.456787,0,0,0
9,21.175573,-44.320611,-5.557252,-0.902344,0.05481,0.466064,0,0,0
12,21.236641,-42.870229,-6.412214,-0.883667,0.063354,0.463379,0,0,0
15,22.977099,-40.977099,-5.022901,-0.86731,0.070435,0.468628,0,0,0
18,18.641221,-42.366412,-9.312977,-0.889282,0.057495,0.490112,0,0,0
21,18.59542,-36.381679,-8.015267,-0.821533,0.082397,0.454468,0,0,0
24,18.396947,-32.335878,-8.458015,-0.850098,0.067871,0.461426,0,0,0
27,19.038168,-29.038168,-7.053435,-0.862427,0.1073,0.42749,0,0,0
30,19.007634,-30.80916,-6.091603,-0.891724,0.092773,0.460815,0,0,0
33,20.946565,-29.847328,-3.267176,-0.904175,0.092407,0.521973,0,0,0
36,18.961832,-30.946565,-4.030534,-0.891846,0.133667,0.460815,0,0,0
39,20.656489,-28.961832,-1.175573,-0.890015,0.117676,0.479248,0,0,0
42,18.015267,-29.969466,-4.885496,-0.9021,0.085693,0.536499,0,0,0
45,14.977099,-29.160305,-5.816794,-0.868042,0.155762,0.427246,0,0,0
48,15.160305,-30.427481,-6.030534,-0.882935,0.036377,0.5,0,0,0
51,12.061069,-31.740458,-10.656489,-0.876831,0.094971,0.473267,0,0,0
54,11.236641,-30.503817,-4.671756,-0.871826,0.059814,0.492798,0,0,0
57,12.061069,-30.015267,-5.221374,-0.889648,0.041626,0.502808,0,0,0
60,19.358779,-26.748092,-1.267176,-0.853027,0.098755,0.385864,0,0,0
63,24.137405,-25.862595,0.854962,-0.905762,0.050659,0.470703,0,0,0
66,24.48855,-25.145038,-0.824427,-0.889526,0.088379,0.488525,0,0,0
69,23.328244,-23.480916,0.122137,-0.874634,0.110718,0.451538,0,0,0
72,22.137405,-21.038168,1.206107,-0.878174,0.110107,0.433105,0,0,0
75,18.824427,-23.648855,-3.343511,-0.892212,0.060669,0.495239,0,0,0
78,16.015267,-22.961832,-3.038168,-0.87793,0.069336,0.484009,0,0,0
81,13.801527,-25.145038,-3.618321,-0.881836,0.033203,0.44397,0,0,0
84,16.259542,-22.900763,-0.839695,-0.858521,-0.011108,0.512817,0,0,0
87,21.129771,-20.564885,-0.366412,-0.859131,0.018677,0.418823,0,0,0
90,24.854962,-18.961832,2.045802,-0.881104,0.04187,0.469238,0,0,0
93,25.862595,-16.534351,3.145038,-0.884033,0.091309,0.471313,0,0,0
96,29.053435,-12.442748,5.374046,-0.875366,0.112061,0.430298,0,0,0
99,24.427481,-14.198473,1.496183,-0.906982,0.085815,0.49231,0,0,0
102,20.091603,-15.480916,0.580153,-0.884033,0.131836,0.430298,0,0,0
105,17.78626,-14.396947,1.160305,-0.850708,0.059204,0.406006,0,0,0
108,17.984733,-13.541985,0.152672,-0.894409,0.019287,0.505859,0,0,0
111,17.435115,-14.183206,0.641221,-0.865845,0.056885,0.439209,0,0,0
114,22.931298,-10.778626,4.091603,-0.861694,0.015381,0.475342,0,0,0
117,23.541985,-10.122137,2.030534,-0.877441,0.041016,0.505493,0,0,0
120,23.099237,-9.557252,2.70229,-0.872314,0.07373,0.471436,0,0,0
123,26.030534,-7.984733,2.992366,-0.856445,0.058594,0.417358,0,0,0
126,25.389313,-8.763359,1.969466,-0.879761,0.065186,0.462891,0,0,0
129,23.129771,-8.427481,1.40458,-0.886597,0.109253,0.480103,0,0,0
132,21.587786,-9.083969,2.290076,-0.876465,0.080811,0.496826,0,0,0
135,22.80916,-5.984733,2.717557,-0.867676,0.078613,0.502808,0,0,0
138,22.48855,-7.480916,0.656489,-0.871216,0.073975,0.470581,0,0,0
141,20.259542,-8.732824,-2.381679,-0.869263,0.074707,0.443848,0,0,0
144,18.045802,-10.610687,-2.717557,-0.883789,-0.012573,0.571167,0,0,0
147,11.954198,-14.641221,-10.671756,-0.869873,0.03418,0.467285,0,0,0
150,18.396947,-4.290076,3.648855,-0.829956,0.124756,0.393311,0,0,0
153,20.366412,-9.847328,-3.114504,-0.904541,-0.081177,0.571655,0,0,0
156,16.564885,-11.236641,-9.938931,-0.866455,0.044678,0.572998,0,0,0
159,16.610687,-11.175573,-6.763359,-0.854614,0.020264,0.459229,0,0,0
162,18.656489,-8.59542,-4.854962,-0.870483,0.081665,0.464722,0,0,0
165,20.687023,-9.694656,-4.900763,-0.881714,0.013672,0.529175,0,0,0
168,17.40458,-14.473282,-14.290076,-0.868652,-0.034912,0.528687,0,0,0
171,13.557252,-16.274809,-16.473282,-0.867798,0.007935,0.518799,0,0,0
174,15.877863,-13.877863,-10.992366,-0.854492,-0.006592,0.531982,0,0,0
177,15.160305,-16.152672,-16.70229,-0.864014,-0.046387,0.489624,0,0,0
180,17.923664,-16.534351,-15.984733,-0.868286,-0.024414,0.551758,0,0,0
183,15.984733,-19.022901,-17.877863,-0.868774,-0.009033,0.512329,0,0,0
186,14.641221,-21.725191,-20.274809,-0.875244,-0.031006,0.535034,0,0,0
189,14.061069,-20.70229,-21.145038,-0.845703,0.013184,0.485107,0,0,0
192,21.618321,-16.80916,-15.175573,-0.846436,0.007324,0.52832,0,0,0
195,22.610687,-19.954198,-19.312977,-0.873901,-0.016724,0.560547,0,0,0
198,24.580153,-17.206107,-17.29771,-0.864624,0.07666,0.535156,0,0,0
201,22.229008,-18.152672,-17.923664,-0.865234,0.070068,0.507446,0,0,0
204,18.748092,-16.427481,-18.366412,-0.868652,0.126099,0.47583,0,0,0
207,14.564885,-20.885496,-22.900763,-0.870972,0.036987,0.443604,0,0,0
210,13.114504,-20.244275,-24.045802,-0.859009,-0.015869,0.552979,0,0,0
213,11.725191,-22.458015,-28.900763,-0.8573,-0.046387,0.502808,0,0,0
216,14.10687,-21.282443,-24.885496,-0.859009,0.003174,0.478149,0,0,0
219,17.114504,-20.641221,-22.366412,-0.857422,-0.069458,0.552734,0,0,0
222,14.900763,-26.167939,-34.549618,-0.873901,-0.098633,0.527588,0,0,0
225,20,-22.549618,-25.603053,-0.852417,0.051758,0.477295,0,0,0
228,23.267176,-23.618321,-23.862595,-0.872559,-0.04126,0.511353,0,0,0
231,23.633588,-24.122137,-28.335878,-0.863403,0.02124,0.503174,0,0,0
234,21.282443,-26.427481,-31.19084,-0.865234,-0.003906,0.487305,0,0,0
237,21.175573,-25.938931,-28.641221,-0.862671,0.043457,0.472168,0,0,0
240,24.412214,-22.122137,-23.450382,-0.853638,0.111084,0.454102,0,0,0
243,22.458015,-26.59542,-29.832061,-0.87085,-0.008179,0.519043,0,0,0
246,17.603053,-26,-34.824427,-0.872437,0.07666,0.522217,0,0,0
249,21.755725,-23.801527,-24.992366,-0.862305,0.089966,0.486938,0,0,0
252,22.900763,-23.954198,-26.992366,-0.862183,0.031494,0.498291,0,0,0
255,25.648855,-18.931298,-23.816794,-0.866333,0.140381,0.517822,0,0,0
2,28.366412,-20.763359,-23.083969,-0.87854,0.075317,0.462891,0,0,0
5,30.824427,-20.335878,-20.931298,-0.865601,0.123169,0.522705,0,0,0
8,24.290076,-22.396947,-26.259542,-0.877686,0.057739,0.549438,0,0,0
11,15.29771,-23.053435,-28.152672,-0.862793,0.133423,0.480225,0,0,0
14,14.549618,-24.549618,-27.175573,-0.865112,0.013306,0.479858,0,0,0
17,18.931298,-23.557252,-25.480916,-0.863037,0.010498,0.505127,0,0,0
20,21.40458,-23.755725,-26.244275,-0.85498,0.011108,0.475952,0,0,0
23,24.59542,-22.870229,-24.229008,-0.855957,0.062988,0.452881,0,0,0
26,24.381679,-25.694656,-24.793893,-0.859863,0.013062,0.441772,0,0,0
29,26.854962,-22.320611,-21.709924,-0.876343,0.094727,0.497803,0,0,0
32,30.167939,-21.587786,-18.305344,-0.873657,0.098022,0.468506,0,0,0
35,33.770992,-19.648855,-15.099237,-0.862915,0.147705,0.467773,0,0,0
38,28.580153,-22.229008,-18.274809,-0.884155,0.0802,0.52771,0,0,0
41,17.389313,-24.946565,-27.664122,-0.886108,0.094849,0.461304,0,0,0
44,21.129771,-22.152672,-16.335878,-0.849121,0.096191,0.493774,0,0,0
47,16.503817,-24.946565,-23.938931,-0.870972,-0.020752,0.469971,0,0,0
50,16.290076,-23.053435,-23.679389,-0.861572,0.049927,0.501953,0,0,0
53,24.458015,-21.358779,-18.229008,-0.848877,0.048096,0.438232,0,0,0
56,30.396947,-20.641221,-15.129771,-0.870239,0.05542,0.476685,0,0,0
59,30.351145,-22.549618,-17.816794,-0.876099,0.026611,0.560791,0,0,0
62,26.290076,-21.847328,-18.961832,-0.866333,0.077637,0.539917,0,0,0
65,25.206107,-23.526718,-18.534351,-0.873413,0.032104,0.509766,0,0,0
68,28.549618,-20.961832,-12.412214,-0.8573,0.088867,0.531738,0,0,0
71,25.419847,-24.335878,-19.755725,-0.853394,-0.058105,0.544312,0,0,0
74,16.992366,-28.137405,-28.977099,-0.868774,-0.021851,0.543335,0,0,0
77,13.175573,-28.793893,-26.885496,-0.835571,-0.054688,0.52356,0,0,0
80,17.053435,-27.450382,-24.931298,-0.842651,-0.043945,0.484741,0,0,0
83,27.450382,-24.152672,-19.038168,-0.836304,-0.026367,0.564941,0,0,0
86,31.89313,-23.984733,-22.885496,-0.854614,0.000977,0.468384,0,0,0
89,36.977099,-23.740458,-18.412214,-0.85437,0.098877,0.542603,0,0,0
92,27.572519,-28.793893,-25.679389,-0.868042,-0.002075,0.522095,0,0,0
95,21.175573,-28.48855,-28.21374,-0.858154,0.061646,0.531128,0,0,0
98,17.267176,-29.770992,-26.091603,-0.854126,0.008545,0.531128,0,0,0
101,24.839695,-26.183206,-22.412214,-0.839111,0.025269,0.544922,0,0,0
104,32.335878,-25.740458,-20.183206,-0.848511,0.011719,0.5271,0,0,0
107,30.656489,-28.396947,-24.122137,-0.856689,-0.000244,0.52478,0,0,0
110,21.526718,-30.610687,-31.389313,-0.867798,0.063599,0.447021,0,0,0
113,22.671756,-29.694656,-24.412214,-0.842896,0.027832,0.553345,0,0,0
116,19.832061,-30.458015,-30.305344,-0.845337,-0.04248,0.519409,0,0,0
119,20.70229,-32.10687,-30.900763,-0.851074,-0.08728,0.541504,0,0,0
122,32.229008,-24.870229,-18.900763,-0.84082,0.095337,0.530151,0,0,0
125,42.59542,-27.160305,-17.648855,-0.846924,0.002319,0.508789,0,0,0
128,39.694656,-24.59542,-22.977099,-0.850952,0.122192,0.515869,0,0,0
131,30.229008,-31.847328,-29.664122,-0.874756,0.010864,0.451416,0,0,0
134,27.343511,-30.48855,-26.351145,-0.850342,0.035522,0.560913,0,0,0
137,23.89313,-32.015267,-28.687023,-0.848633,-0.070435,0.551758,0,0,0
140,19.068702,-33.007634,-35.557252,-0.856323,-0.038452,0.497437,0,0,0
143,26.519084,-31.267176,-28.549618,-0.850952,-0.026855,0.511597,0,0,0
146,34.946565,-32.122137,-27.29771,-0.84668,-0.083008,0.502075,0,0,0
149,38.396947,-29.89313,-30.671756,-0.83606,-0.020874,0.555054,0,0,0
152,32,-33.618321,-38.137405,-0.866089,-0.061401,0.473022,0,0,0
155,41.282443,-29.755725,-23.053435,-0.838135,0.058228,0.605103,0,0,0
158,35.038168,-32.183206,-33.068702,-0.862549,-0.023804,0.512817,0,0,0
161,29.954198,-35.358779,-37.282443,-0.86145,-0.006714,0.588623,0,0,0
164,30.793893,-32.656489,-35.221374,-0.832153,0.033691,0.532227,0,0,0
167,25.40458,-39.007634,-43.832061,-0.856689,-0.153198,0.512085,0,0,0
170,25.206107,-33.923664,-41.374046,-0.832642,0.028076,0.549683,0,0,0
173,30.992366,-32.641221,-35.954198,-0.837891,0.027344,0.464722,0,0,0
176,46.076336,-29.343511,-26.015267,-0.842041,0.067139,0.532349,0,0,0
179,48.763359,-28.80916,-31.480916,-0.85437,0.049561,0.480713,0,0,0
182,48.045802,-28.687023,-32.305344,-0.868042,0.217651,0.471313,0,0,0
185,41.633588,-29.908397,-29.251908,-0.854736,0.138184,0.516968,0,0,0
188,27.89313,-30.763359,-39.587786,-0.868652,0.108276,0.491211,0,0,0
191,21.51145,-33.358779,-37.450382,-0.847412,0.005981,0.565308,0,0,0
194,18.854962,-30.015267,-39.938931,-0.855835,0.079712,0.496094,0,0,0
197,30.549618,-27.145038,-24.992366,-0.838379,0.085205,0.483032,0,0,0
200,45.068702,-24.305344,-24.122137,-0.848267,0.02002,0.534668,0,0,0
203,48.412214,-25.099237,-27.19084,-0.854004,0.091919,0.542236,0,0,0
206,39.450382,-29.496183,-32.366412,-0.863525,0.066895,0.523193,0,0,0
209,30.748092,-28.870229,-29.832061,-0.855591,0.110229,0.538696,0,0,0
212,27.29771,-29.969466,-29.954198,-0.843262,0.042358,0.499023,0,0,0
215,31.709924,-29.557252,-25.541985,-0.82959,0.028931,0.58606,0,0,0
218,40.977099,-22.427481,-20.854962,-0.825562,0.134155,0.565308,0,0,0
221,41.480916,-30.091603,-26.48855,-0.851318,-0.048828,0.518066,0,0,0
224,35.557252,-28.21374,-33.083969,-0.845825,0.107788,0.514771,0,0,0
227,32.793893,-29.526718,-26.305344,-0.83606,0.098389,0.480103,0,0,0
230,36.519084,-27.419847,-22.351145,-0.843262,0.120483,0.506226,0,0,0
233,40.80916,-27.557252,-22.580153,-0.835205,0.05188,0.546143,0,0,0
236,37.480916,-29.038168,-26.961832,-0.85083,0.091431,0.495239,0,0,0
239,39.801527,-28.885496,-24.091603,-0.855713,0.13147,0.500122,0,0,0
242,34.519084,-33.908397,-30.671756,-0.841309,-0.055542,0.55896,0,0,0
245,19.236641,-33.251908,-40.167939,-0.837402,-0.003662,0.570068,0,0,0
248,22.137405,-32.625954,-34.854962,-0.822266,0.008789,0.504761,0,0,0
251,34.061069,-30.916031,-25.435115,-0.818237,-0.021606,0.516357,0,0,0
254,42.931298,-29.206107,-27.40458,-0.832031,-0.01123,0.546875,0,0,0
1,47.908397,-29.29771,-25.954198,-0.84314,0.031372,0.567383,0,0,0
4,53.236641,-28.396947,-21.633588,-0.83252,0.114746,0.614136,0,0,0
7,42.977099,-30.854962,-27.938931,-0.838745,0.08606,0.574829,0,0,0
10,42.122137,-27.557252,-23.633588,-0.842285,0.223022,0.569458,0,0,0
13,39.419847,-32.320611,-26.320611,-0.842285,0.023682,0.498779,0,0,0
16,38.229008,-30.183206,-28.625954,-0.836792,0.091553,0.575073,0,0,0
19,31.29771,-30.580153,-34.229008,-0.844482,0.11499,0.510864,0,0,0
22,27.19084,-34.335878,-35.740458,-0.856689,0.027466,0.497437,0,0,0
25,30.916031,-30.580153,-29.755725,-0.838379,0.129761,0.512573,0,0,0
28,40.519084,-28.992366,-23.572519,-0.83606,0.134766,0.519775,0,0,0
31,38.167939,-30.931298,-30.183206,-0.85437,0.057373,0.533691,0,0,0
34,28.412214,-34.503817,-40.366412,-0.845093,-0.00769,0.526978,0,0,0
37,19.541985,-35.618321,-40.992366,-0.840332,0.035278,0.53833,0,0,0
40,19.221374,-34.137405,-39.450382,-0.829956,-0.050049,0.624146,0,0,0
43,27.664122,-29.007634,-34.198473,-0.831299,0.059082,0.526855,0,0,0
46,41.770992,-27.603053,-23.389313,-0.836182,0.093994,0.529907,0,0,0
49,44.427481,-31.954198,-34.977099,-0.834717,-0.085205,0.621582,0,0,0
52,26,-34.854962,-50,-0.852661,-0.02124,0.579956,0,0,0
55,20.961832,-34.198473,-42.961832,-0.863281,0.104614,0.545044,0,0,0
58,23.083969,-33.541985,-38.70229,-0.829224,-0.008545,0.536255,0,0,0
61,30.458015,-28.48855,-35.954198,-0.838867,0.055054,0.527832,0,0,0
64,32.396947,-32.137405,-39.801527,-0.831543,-0.072021,0.508545,0,0,0
67,31.755725,-27.572519,-43.755725,-0.842041,0.126587,0.55481,0,0,0
70,33.099237,-28.671756,-38.351145,-0.837402,0.093384,0.489868,0,0,0
73,32.427481,-26.717557,-38.900763,-0.828979,0.092041,0.56543,0,0,0
76,28.564885,-26.732824,-41.267176,-0.84668,0.04126,0.563843,0,0,0
79,25.847328,-26.885496,-43.358779,-0.839966,0.011963,0.562866,0,0,0
82,23.923664,-24.671756,-45.206107,-0.836914,0.061401,0.511353,0,0,0
85,28.473282,-23.954198,-40.091603,-0.840332,0.018677,0.546021,0,0,0
88,27.221374,-23.114504,-46.290076,-0.847168,-0.042114,0.487305,0,0,0
91,32.671756,-21.099237,-39.480916,-0.848755,0.101318,0.532593,0,0,0
94,43.29771,-18,-29.40458,-0.838623,0.10791,0.575562,0,0,0
97,34.916031,-19.129771,-42.442748,-0.827026,-0.058838,0.465088,0,0,0
100,33.022901,-17.603053,-38.015267,-0.84436,0.051392,0.583008,0,0,0
103,37.877863,-16.030534,-29.862595,-0.828735,0.038696,0.578857,0,0,0
106,42.198473,-14.396947,-34.015267,-0.838013,0.050903,0.530396,0,0,0
109,43.78626,-16.198473,-35.572519,-0.819336,-0.003784,0.565186,0,0,0
112,37.587786,-12.259542,-40.519084,-0.84021,0.146118,0.578247,0,0,0
115,33.51145,-16.427481,-39.847328,-0.848999,0.055176,0.549194,0,0,0
118,29.343511,-14,-40.259542,-0.849365,0.102661,0.532227,0,0,0
121,33.053435,-12.717557,-34.748092,-0.833984,0.061401,0.578125,0,0,0
124,36.763359,-13.114504,-37.664122,-0.825195,0.016602,0.536621,0,0,0
127,37.89313,-13.709924,-38.473282,-0.825684,0.030518,0.556641,0,0,0
130,33.709924,-12.290076,-39.068702,-0.853027,0.11145,0.541382,0,0,0
133,35.251908,-13.984733,-34.396947,-0.835693,0.036377,0.54541,0,0,0
136,37.129771,-11.969466,-35.832061,-0.811523,-0.011719,0.608276,0,0,0
139,36.732824,-12.320611,-39.343511,-0.832642,-0.036499,0.59082,0,0,0
142,35.633588,-10.70229,-38.916031,-0.856079,0.082397,0.514648,0,0,0
145,45.465649,-10.671756,-29.572519,-0.846069,0.097412,0.554321,0,0,0
148,47.862595,-9.877863,-30.290076,-0.827881,0.078979,0.522461,0,0,0
151,46.59542,-7.206107,-32.045802,-0.861328,0.168457,0.549561,0,0,0
154,48.916031,-7.114504,-26.091603,-0.860229,0.221436,0.487061,0,0,0
157,50.396947,-9.29771,-23.877863,-0.826782,0.138428,0.529053,0,0,0
160,38.061069,-7.740458,-36.687023,-0.831299,0.098389,0.519165,0,0,0
163,27.694656,-7.633588,-37.78626,-0.855469,0.127075,0.564575,0,0,0
166,24.717557,-7.51145,-33.51145,-0.846558,0.136719,0.525513,0,0,0
169,26.442748,-8.244275,-32.946565,-0.822876,0.031982,0.526611,0,0,0
172,26.10687,-6.091603,-39.053435,-0.845337,-0.004517,0.498169,0,0,0
175,34.59542,-7.419847,-30.519084,-0.823608,0.012939,0.588013,0,0,0
178,33.740458,-6.030534,-34.458015,-0.833618,0.003662,0.525513,0,0,0
181,38.916031,-7.969466,-29.29771,-0.856323,0.079468,0.588013,0,0,0
184,38.274809,-6.366412,-29.694656,-0.830322,0.089111,0.505859,0,0,0
187,41.343511,-7.175573,-28.21374,-0.823364,0.054565,0.545288,0,0,0
190,35.664122,-5.343511,-34.931298,-0.844604,0.081177,0.520142,0,0,0
193,29.221374,-7.969466,-35.938931,-0.84729,0.047119,0.500122,0,0,0
196,30.290076,-5.480916,-31.251908,-0.847046,0.109131,0.594849,0,0,0
199,29.908397,-6.580153,-33.923664,-0.832397,0.027588,0.493408,0,0,0
202,26.320611,-7.603053,-39.267176,-0.84082,-0.006836,0.503784,0,0,0
205,26.198473,-5.068702,-37.312977,-0.838501,0.049194,0.567749,0,0,0
208,28.931298,-6.900763,-34.122137,-0.842529,0.047241,0.563354,0,0,0
211,29.114504,-4.503817,-36.564885,-0.839478,0.039795,0.557861,0,0,0
214,34.396947,-4.824427,-32.305344,-0.841675,0.058594,0.582397,0,0,0
217,33.236641,-3.496183,-34.076336,-0.846313,0.090332,0.522095,0,0,0
220,31.847328,-4.412214,-34.458015,-0.855591,0.083008,0.546997,0,0,0
223,29.053435,-3.450382,-34.656489,-0.831543,0.078125,0.543335,0,0,0
226,21.19084,-2.10687,-41.633588,-0.864136,0.008667,0.478027,0,0,0
229,26.167939,-4.305344,-33.312977,-0.860107,0.052856,0.573853,0,0,0
232,22.931298,-4.137405,-39.221374,-0.80957,-0.067139,0.499146,0,0,0
235,21.465649,-1.022901,-41.587786,-0.847534,0.022705,0.576782,0,0,0
238,27.114504,-2.549618,-35.374046,-0.859619,0.013184,0.542969,0,0,0
241,27.19084,-3.129771,-39.526718,-0.824219,-0.046387,0.49585,0,0,0
244,26.931298,-0.839695,-42.900763,-0.828247,-0.014648,0.552979,0,0,0
247,31.19084,0.427481,-37.160305,-0.851929,0.096558,0.569458,0,0,0
250,34.503817,-2.137405,-34.48855,-0.833984,0.041138,0.490967,0,0,0
253,27.847328,0.946565,-41.740458,-0.847778,0.033691,0.481445,0,0,0
0,29.862595,-0.091603,-37.709924,-0.838013,0.066528,0.57373,0,0,0
3,22.946565,-0.70229,-44.656489,-0.82373,-0.037354,0.504028,0,0,0
6,13.816794,2.183206,-49.374046,-0.860107,0.045288,0.547729,0,0,0
9,14.870229,0.015267,-45.40458,-0.837036,-0.058472,0.560425,0,0,0
12,20.778626,1.267176,-47.206107,-0.859863,-0.046997,0.582764,0,0,0
15,28.366412,0.091603,-44.610687,-0.832031,-0.049316,0.518799,0,0,0
18,30.641221,-0.091603,-44.610687,-0.820435,-0.03125,0.540161,0,0,0
21,23.877863,0.687023,-51.755725,-0.832886,-0.044434,0.520508,0,0,0
24,15.40458,0.793893,-53.40458,-0.854004,-0.017212,0.514282,0,0,0
27,19.114504,-0.519084,-49.603053,-0.838135,-0.081055,0.556885,0,0,0
30,18.549618,0.625954,-57.389313,-0.811401,-0.191162,0.524048,0,0,0
33,23.19084,2.824427,-55.221374,-0.878784,0.00769,0.560791,0,0,0
36,31.816794,-1.526718,-48.793893,-0.797729,-0.095825,0.532104,0,0,0
39,30.21374,3.725191,-53.603053,-0.850464,0.096436,0.584229,0,0,0
42,36.946565,-1.862595,-47.709924,-0.810669,0.002441,0.524292,0,0,0
45,32.137405,4.412214,-51.007634,-0.837524,0.117432,0.560547,0,0,0
48,39.801527,3.603053,-42.961832,-0.832886,0.144653,0.592651,0,0,0
51,34.687023,4.274809,-48.916031,-0.857788,0.104004,0.476807,0,0,0
54,30.870229,3.770992,-48.351145,-0.842163,0.113647,0.492676,0,0,0
57,24,4.335878,-49.862595,-0.855591,0.098999,0.505859,0,0,0
60,18.916031,4.061069,-52.778626,-0.805908,0.004761,0.559814,0,0,0
63,18.48855,7.862595,-51.419847,-0.84668,0.065186,0.650269,0,0,0
66,28.641221,6.366412,-44.473282,-0.846069,0.053223,0.575195,0,0,0
69,31.938931,6.259542,-44.198473,-0.828857,0.055176,0.530396,0,0,0
72,30.183206,6.839695,-47.541985,-0.824585,0.038574,0.505127,0,0,0
75,29.083969,8.21374,-45.419847,-0.854614,0.125732,0.552368,0,0,0
78,27.450382,5.175573,-46.458015,-0.808838,0.011841,0.484375,0,0,0
81,19.725191,9.083969,-50.793893,-0.82373,0.030884,0.552246,0,0,0
84,24.931298,8.70229,-45.725191,-0.86145,0.096924,0.602295,0,0,0
87,31.587786,5.694656,-39.679389,-0.82959,0.097534,0.53833,0,0,0
90,27.541985,7.29771,-47.923664,-0.812744,-0.003052,0.45166,0,0,0
93,30.045802,5.068702,-42.335878,-0.82251,0.071411,0.578491,0,0,0
96,26.519084,8.442748,-42.534351,-0.85498,0.098633,0.567871,0,0,0
99,28.916031,3.389313,-38.824427,-0.841919,0.07959,0.538452,0,0,0
102,23.664122,5.664122,-44.320611,-0.838135,0.02478,0.498047,0,0,0
105,25.572519,5.312977,-41.709924,-0.843506,0.071533,0.561279,0,0,0
108,26.381679,4.015267,-41.587786,-0.817261,0.003784,0.539062,0,0,0
111,23.114504,8.335878,-44.503817,-0.839966,0.062378,0.533691,0,0,0
114,25.038168,6.610687,-40.549618,-0.85083,0.057373,0.560303,0,0,0
117,25.847328,6.229008,-39.801527,-0.827271,0.035156,0.519531,0,0,0
120,24.122137,7.236641,-40.549618,-0.838501,0.031494,0.530151,0,0,0
123,24.412214,7.801527,-39.29771,-0.836426,0.013916,0.544067,0,0,0
126,19.389313,8.10687,-43.969466,-0.834106,-0.057495,0.495117,0,0,0
129,21.267176,9.312977,-39.648855,-0.881592,0.08252,0.591431,0,0,0
132,27.29771,5.160305,-33.450382,-0.804688,-0.040771,0.521118,0,0,0
135,21.053435,10.091603,-44.305344,-0.807251,-0.074585,0.522949,0,0,0
138,19.725191,10.473282,-43.083969,-0.875732,-0.017456,0.590698,0,0,0
141,27.175573,7.541985,-33.877863,-0.829834,-0.003418,0.597412,0,0,0
144,30.793893,10.610687,-34.259542,-0.835083,0.032715,0.573486,0,0,0
147,36.076336,7.908397,-34.030534,-0.796875,-0.054443,0.489624,0,0,0
150,31.847328,12.244275,-38.183206,-0.82019,0.01709,0.588501,0,0,0
153,27.374046,11.068702,-37.435115,-0.863647,0.03418,0.553345,0,0,0
156,30.21374,8.366412,-32.458015,-0.854126,0.060669,0.576904,0,0,0
159,31.51145,7.435115,-31.770992,-0.801636,-0.032471,0.535889,0,0,0
162,28.030534,10.061069,-38.427481,-0.832275,-0.003784,0.546509,0,0,0
165,26.045802,6.992366,-35.89313,-0.801147,-0.046753,0.501831,0,0,0
168,18.305344,11.145038,-42.122137,-0.851807,-0.001221,0.572021,0,0,0
171,21.709924,8.167939,-37.053435,-0.839478,-0.047729,0.565063,0,0,0
174,32.48855,7.801527,-31.633588,-0.82373,-0.009155,0.597412,0,0,0
177,40.641221,7.526718,-28.564885,-0.809937,0.001709,0.592896,0,0,0
180,38.854962,8.793893,-35.129771,-0.814087,-0.021729,0.513306,0,0,0
183,31.908397,10.534351,-35.694656,-0.880005,0.068481,0.561646,0,0,0
186,31.099237,7.160305,-31.328244,-0.851196,0.031128,0.53772,0,0,0
189,29.343511,8.320611,-33.832061,-0.823364,0.000488,0.554321,0,0,0
192,27.312977,8.580153,-34.366412,-0.850098,0.004028,0.551514,0,0,0
195,31.954198,7.648855,-29.78626,-0.837646,0.059326,0.57251,0,0,0
198,30.778626,6.778626,-36.977099,-0.787109,-0.099121,0.464844,0,0,0
201,23.541985,12.458015,-41.480916,-0.863281,0.004639,0.533569,0,0,0
204,26.961832,6.656489,-32.839695,-0.834351,0.014526,0.526001,0,0,0
207,24.335878,9.251908,-36.870229,-0.844238,-0.013428,0.526611,0,0,0
210,33.496183,8.122137,-29.374046,-0.870117,0.085938,0.584229,0,0,0
213,35.328244,6.015267,-29.908397,-0.826538,0.015015,0.455811,0,0,0
216,35.40458,9.145038,-28.351145,-0.841919,0.13208,0.569702,0,0,0
219,34.442748,7.40458,-28.381679,-0.851562,0.053101,0.503296,0,0,0
222,35.053435,7.435115,-27.007634,-0.841431,0.134155,0.565308,0,0,0
225,28.167939,7.129771,-30.091603,-0.818481,0.061035,0.488647,0,0,0
228,22.503817,6.59542,-31.89313,-0.859375,0.058472,0.591431,0,0,0
231,27.251908,5.068702,-23.557252,-0.862915,0.115967,0.612305,0,0,0
234,26.610687,4.732824,-27.358779,-0.80481,-0.01416,0.458618,0,0,0
237,19.694656,9.603053,-33.89313,-0.819824,-0.009277,0.471436,0,0,0
240,21.236641,9.465649,-28.076336,-0.850098,0.076904,0.590576,0,0,0
243,17.572519,9.51145,-30.900763,-0.827271,-0.047119,0.480347,0,0,0
246,21.312977,10.977099,-27.679389,-0.858154,0.031006,0.608154,0,0,0
249,28.564885,8.396947,-23.740458,-0.836304,-0.0354,0.533203,0,0,0
252,25.877863,11.267176,-31.068702,-0.825073,-0.060181,0.471069,0,0,0
255,27.099237,10.824427,-26.70229,-0.843018,0.061035,0.578735,0,0,0
2,24.748092,11.068702,-25.435115,-0.854126,0.018677,0.546631,0,0,0
5,27.618321,10.396947,-24.381679,-0.855103,0.057373,0.584839,0,0,0
8,28.48855,8.992366,-23.465649,-0.819458,0.015137,0.523926,0,0,0
11,28.030534,11.389313,-24.641221,-0.842529,0.048462,0.52124,0,0,0
14,29.007634,11.083969,-21.954198,-0.824585,0.049194,0.54834,0,0,0
17,25.725191,14.244275,-27.496183,-0.798462,-0.013916,0.494263,0,0,0
20,19.587786,16.381679,-32.396947,-0.858398,0.053589,0.510742,0,0,0
23,21.450382,12.580153,-26,-0.878906,0.172974,0.585571,0,0,0
26,26.946565,7.40458,-20.442748,-0.83606,0.120728,0.543213,0,0,0
29,23.068702,10,-25.175573,-0.847778,0.156006,0.515015,0,0,0
32,21.022901,7.068702,-21.969466,-0.856812,0.151733,0.510254,0,0,0
35,14.229008,7.374046,-24.244275,-0.852905,0.137207,0.472656,0,0,0
38,14.183206,6.183206,-20.534351,-0.861084,0.211548,0.586792,0,0,0
41,11.343511,5.282443,-20.793893,-0.835449,0.094116,0.464966,0,0,0
44,12.320611,7.053435,-19.541985,-0.884766,0.18103,0.566895,0,0,0
47,15.587786,3.725191,-16.992366,-0.808716,0.076904,0.444336,0,0,0
50,11.78626,7.862595,-21.312977,-0.834961,0.111938,0.522217,0,0,0
53,9.099237,7.450382,-21.007634,-0.84021,0.094482,0.531128,0,0,0
56,4.763359,8.122137,-21.847328,-0.862061,0.108398,0.578735,0,0,0
59,6.183206,5.129771,-18.396947,-0.862915,0.12915,0.585083,0,0,0
62,7.572519,3.51145,-19.038168,-0.808228,0.03125,0.507202,0,0,0
65,0.717557,7.374046,-25.801527,-0.826904,-0.026733,0.49939,0,0,0
68,3.450382,8.122137,-21.419847,-0.915527,0.096436,0.677734,0,0,0
71,12.412214,-0.030534,-13.435115,-0.817627,0.036865,0.557617,0,0,0
74,8.580153,5.465649,-21.618321,-0.786133,-0.022217,0.49939,0,0,0
77,10.580153,5.099237,-19.847328,-0.843262,0.061035,0.606812,0,0,0
80,8.412214,4.534351,-20.763359,-0.81897,-0.00293,0.512817,0,0,0
83,4.21374,6.122137,-21.954198,-0.858887,0.057861,0.558228,0,0,0
86,11.679389,1.770992,-15.29771,-0.878296,0.056763,0.632446,0,0,0
89,12.335878,-0.381679,-18.229008,-0.795654,-0.02771,0.422852,0,0,0
92,10.503817,3.648855,-20.748092,-0.842407,0.010254,0.535889,0,0,0
95,13.435115,0.732824,-16.656489,-0.863525,0.046509,0.536011,0,0,0
98,12.656489,-0.732824,-16.412214,-0.839844,0.020264,0.519287,0,0,0
101,10.793893,0.534351,-18.870229,-0.80249,-0.009277,0.498535,0,0,0
104,9.328244,2.381679,-18.259542,-0.849365,0.05603,0.547363,0,0,0
107,4.458015,2.961832,-21.740458,-0.854858,-0.044556,0.488647,0,0,0
110,5.435115,1.89313,-19.251908,-0.870728,0.039673,0.571533,0,0,0
113,10.305344,0.900763,-16.335878,-0.85083,-0.012329,0.550903,0,0,0
116,13.618321,2.641221,-19.099237,-0.829834,-0.023682,0.515503,0,0,0
119,17.465649,1.862595,-15.022901,-0.887451,0.055542,0.57019,0,0,0
122,17.282443,-1.022901,-15.206107,-0.778442,-0.065308,0.422119,0,0,0
125,9.450382,6.854962,-22.48855,-0.848267,0.015259,0.575806,0,0,0
128,8.931298,5.343511,-20.824427,-0.868286,0.001099,0.519165,0,0,0
131,8.030534,4.396947,-20.152672,-0.842773,0.004395,0.547607,0,0,0
134,11.862595,3.89313,-16.366412,-0.85376,0.028931,0.593628,0,0,0
137,12.076336,6.442748,-23.129771,-0.793335,-0.129517,0.364746,0,0,0
140,10.015267,8.549618,-23.603053,-0.854248,0.055176,0.575562,0,0,0
143,10.625954,7.312977,-20.351145,-0.870972,0.021118,0.577759,0,0,0
146,15.145038,2.80916,-17.374046,-0.856079,0.085449,0.548096,0,0,0
149,10.564885,4.076336,-20.763359,-0.827393,-0.024292,0.422607,0,0,0
152,7.832061,7.755725,-23.129771,-0.85437,0.029297,0.53186,0,0,0
155,10.610687,5.145038,-17.633588,-0.872559,0.063843,0.617188,0,0,0
158,11.984733,3.648855,-16.641221,-0.802368,-0.021851,0.410889,0,0,0
161,14.381679,8.870229,-17.770992,-0.88269,0.109131,0.672974,0,0,0
164,20.183206,5.374046,-12.335878,-0.859985,0.063354,0.50647,0,0,0
167,15.29771,8.564885,-18,-0.820068,0.052002,0.404785,0,0,0
170,10.671756,9.740458,-19.282443,-0.879517,0.098755,0.547974,0,0,0
173,6.335878,7.496183,-18.70229,-0.864868,0.068604,0.540527,0,0,0
176,4.70229,6.351145,-19.267176,-0.897217,0.081543,0.620972,0,0,0
179,8.610687,1.267176,-15.114504,-0.816284,0.003174,0.50061,0,0,0
182,5.496183,8.274809,-18.70229,-0.819092,0.02771,0.492065,0,0,0
185,5.694656,11.114504,-19.343511,-0.848145,-0.012451,0.509155,0,0,0
188,6.458015,9.984733,-17.251908,-0.90918,0.054443,0.615967,0,0,0
191,9.877863,7.679389,-13.312977,-0.816528,-0.008545,0.483521,0,0,0
194,12.687023,10.717557,-13.725191,-0.850098,0.041992,0.60437,0,0,0
197,11.633588,12.229008,-14.610687,-0.842285,-0.018066,0.502563,0,0,0
200,13.206107,9.984733,-11.633588,-0.885864,0.054688,0.593384,0,0,0
203,17.709924,8.442748,-10.167939,-0.838013,0.021606,0.53125,0,0,0
206,16.152672,11.221374,-12.183206,-0.823486,0.049072,0.481567,0,0,0
209,11.129771,15.603053,-15.770992,-0.849731,0.004639,0.421631,0,0,0
212,13.526718,9.847328,-11.114504,-0.87915,0.102783,0.624268,0,0,0
215,10.778626,12.122137,-12.473282,-0.78064,-0.030029,0.412109,0,0,0
218,7.954198,16.335878,-16.48855,-0.898438,0.060669,0.621826,0,0,0
221,14.687023,9.328244,-8.396947,-0.845093,0.060425,0.619873,0,0,0
224,15.969466,11.541985,-11.160305,-0.798828,0.014893,0.476074,0,0,0
227,12.70229,14.412214,-14.229008,-0.846558,0.050293,0.485718,0,0,0
230,13.328244,12,-11.099237,-0.853149,0.129272,0.598877,0,0,0
233,8.732824,13.847328,-12.610687,-0.812378,0.042603,0.452148,0,0,0
236,8.641221,13.938931,-12.519084,-0.896973,0.128784,0.672363,0,0,0
239,7.969466,12.015267,-11.083969,-0.812256,0.043457,0.438232,0,0,0
242,8.045802,14.366412,-13.267176,-0.854492,0.081421,0.554565,0,0,0
245,10.473282,10.748092,-9.847328,-0.865967,0.119873,0.578491,0,0,0
248,9.816794,11.19084,-11.251908,-0.797485,0.069092,0.484619,0,0,0
251,10.152672,11.89313,-12.259542,-0.876465,0.117432,0.621094,0,0,0
254,7.664122,10.671756,-11.450382,-0.860962,0.076904,0.512817,0,0,0
1,3.358779,12.748092,-12.870229,-0.841431,0.083862,0.467651,0,0,0
4,2.305344,12.335878,-11.89313,-0.878296,0.051636,0.542725,0,0,0
7,3.755725,10.839695,-11.221374,-0.845581,0.04248,0.525879,0,0,0
10,0.916031,15.007634,-13.572519,-0.839355,0.008301,0.449585,0,0,0
13,-0.259542,16.870229,-14.137405,-0.847656,0.014282,0.498169,0,0,0
16,2.442748,15.755725,-11.40458,-0.872314,0.035156,0.608398,0,0,0
19,5.374046,15.465649,-11.374046,-0.858154,-0.013916,0.531616,0,0,0
22,5.664122,16.030534,-10.442748,-0.827759,0.033447,0.509521,0,0,0
25,6.366412,17.664122,-11.526718,-0.846313,-0.020752,0.496582,0,0,0
28,6.641221,19.068702,-12.48855,-0.867554,0.013916,0.505371,0,0,0
31,5.40458,22.076336,-14.320611,-0.875488,0,0.457397,0,0,0
34,6.290076,19.328244,-12.854962,-0.911987,0.04187,0.589111,0,0,0
37,7.694656,17.633588,-11.923664,-0.86084,0.02063,0.507202,0,0,0
40,4.335878,21.938931,-14.977099,-0.863403,0.02124,0.449341,0,0,0
43,2.946565,22.992366,-15.51145,-0.898193,0.049561,0.515381,0,0,0
46,1.114504,23.832061,-15.832061,-0.87439,0.015625,0.450684,0,0,0
49,-0.793893,24.305344,-16.687023,-0.870605,0.023682,0.461548,0,0,0
52,-1.038168,25.679389,-17.083969,-0.883179,0.012329,0.515869,0,0,0
55,-0.717557,27.038168,-16.824427,-0.896851,0.005493,0.527466,0,0,0
58,1.236641,27.358779,-17.053435,-0.851196,-0.018799,0.412598,0,0,0
61,0.763359,29.847328,-17.679389,-0.862183,0.032349,0.514038,0,0,0
64,3.068702,29.51145,-17.40458,-0.883057,0.020508,0.588379,0,0,0
67,3.587786,28.793893,-16.259542,-0.848145,0.046387,0.500366,0,0,0
70,3.603053,29.908397,-16.061069,-0.839111,0.053589,0.47522,0,0,0
73,2.442748,32.290076,-17.984733,-0.884399,0.047119,0.546143,0,0,0
76,2.458015,30.549618,-16.977099,-0.824463,0.092529,0.440308,0,0,0
79,-0.152672,33.236641,-17.51145,-0.879639,0.10022,0.58252,0,0,0
82,-1.725191,33.465649,-16.763359,-0.851929,0.050781,0.476074,0,0,0
85,-1.129771,29.679389,-16.671756,-0.885864,0.107178,0.669067,0,0,0
88,-1.389313,29.89313,-15.129771,-0.810181,0.047363,0.426147,0,0,0
91,-4.793893,34.10687,-16.778626,-0.868652,0.069092,0.569458,0,0,0
94,-3.770992,31.236641,-15.618321,-0.858154,0.051025,0.550659,0,0,0
97,-3.664122,30.671756,-14.763359,-0.834473,0.036865,0.526001,0,0,0
100,-1.145038,29.740458,-14.366412,-0.838623,0.022339,0.576904,0,0,0
103,0.061069,30.015267,-13.022901,-0.816895,0.010376,0.49292,0,0,0
106,1.465649,28.366412,-12.931298,-0.87085,0.047852,0.68103,0,0,0
109,3.51145,25.129771,-10.122137,-0.809692,0.025024,0.540649,0,0,0
112,3.236641,26.656489,-11.450382,-0.822754,0.031494,0.549316,0,0,0
115,3.801527,27.114504,-11.740458,-0.840698,0.012573,0.552124,0,0,0
118,3.236641,29.068702,-11.694656,-0.834839,0.026489,0.520386,0,0,0
121,5.328244,23.832061,-11.160305,-0.859619,0.033081,0.688354,0,0,0
124,6.290076,21.374046,-9.572519,-0.789429,0.036011,0.495483,0,0,0
127,4.763359,27.236641,-11.374046,-0.795654,0.007324,0.466553,0,0,0
130,2.977099,26.534351,-11.251908,-0.84436,0.040405,0.599731,0,0,0
133,2.732824,22.717557,-10.580153,-0.832153,0.037842,0.612305,0,0,0
136,2.335878,22.137405,-10.610687,-0.817139,0.01123,0.577026,0,0,0
139,3.29771,21.877863,-11.343511,-0.830933,0.004028,0.573975,0,0,0
142,2.687023,20.503817,-10.610687,-0.829102,0.03833,0.552856,0,0,0
145,3.847328,19.89313,-10.458015,-0.815796,0.004028,0.573975,0,0,0
148,2.473282,22.198473,-10.549618,-0.817383,0.014282,0.504761,0,0,0
151,3.938931,17.129771,-9.89313,-0.83728,0.025757,0.626587,0,0,0
154,3.89313,17.022901,-9.526718,-0.808594,0.028198,0.548706,0,0,0
157,2.549618,20.091603,-10.70229,-0.802979,0.011719,0.515259,0,0,0
160,1.801527,18.839695,-10.259542,-0.831665,0.046143,0.540527,0,0,0
163,1.29771,17.358779,-10.122137,-0.847534,0.026611,0.596191,0,0,0
166,2.183206,13.145038,-9.679389,-0.834595,0.042603,0.584229,0,0,0
169,0,15.251908,-9.847328,-0.803955,0.033569,0.49939,0,0,0
172,-2.137405,14.320611,-10.473282,-0.852295,0.052979,0.614868,0,0,0
175,-2.931298,12.274809,-9.755725,-0.839233,0.021973,0.557617,0,0,0
178,-3.343511,11.251908,-9.755725,-0.820557,0.017334,0.535156,0,0,0
181,-3.419847,11.694656,-9.78626,-0.831055,0.003906,0.545898,0,0,0
184,-2.625954,10.59542,-9.633588,-0.846436,0.004028,0.59021,0,0,0
187,-1.954198,7.938931,-8.610687,-0.849243,0.001587,0.598022,0,0,0
190,-3.328244,8.48855,-8.167939,-0.833984,-0.004883,0.498901,0,0,0
193,-2.961832,7.053435,-8.305344,-0.83667,-0.008179,0.53064,0,0,0
196,-1.78626,6.778626,-7.862595,-0.841797,-0.036743,0.567505,0,0,0
199,-1.832061,4.748092,-6.977099,-0.82959,0.007935,0.515503,0,0,0
202,-0.183206,5.801527,-7.236641,-0.830688,-0.032959,0.528931,0,0,0
205,-0.80916,4.167939,-7.419847,-0.837646,0.008301,0.493774,0,0,0
208,-1.251908,3.251908,-7.557252,-0.837036,0.027588,0.502563,0,0,0
211,-1.770992,2.977099,-8.580153,-0.869385,0.001343,0.572998,0,0,0
214,-4.427481,6.045802,-8.091603,-0.833618,0.005127,0.397583,0,0,0
217,-6.381679,6.076336,-9.709924,-0.883423,0.015503,0.523315,0,0,0
220,-6.412214,3.114504,-9.038168,-0.876953,0.01709,0.532959,0,0,0
223,-7.343511,5.328244,-8.778626,-0.843628,-0.012329,0.423218,0,0,0
226,-7.572519,7.145038,-10.259542,-0.866821,-0.009399,0.509644,0,0,0
229,-7.603053,5.480916,-9.175573,-0.866943,-0.002319,0.486572,0,0,0
232,-8.21374,8.21374,-9.19084,-0.873657,-0.015503,0.500732,0,0,0
235,-7.251908,5.740458,-9.877863,-0.901001,-0.012573,0.613647,0,0,0
238,-6.625954,8.427481,-8.503817,-0.829346,-0.021729,0.396973,0,0,0
241,-6.977099,11.847328,-10.061069,-0.897461,-0.023926,0.589966,0,0,0
244,-7.007634,9.51145,-8.381679,-0.897461,-0.0177,0.521851,0,0,0
247,-6.045802,7.51145,-9.083969,-0.859985,-0.019043,0.494507,0,0,0
250,-5.984733,13.419847,-8.503817,-0.861572,-0.041382,0.483887,0,0,0
253,-6.152672,10.076336,-9.633588,-0.893921,0.000122,0.572998,0,0,0
0,-6.778626,13.572519,-7.557252,-0.832275,-0.026733,0.413208,0,0,0
3,-6.870229,16.10687,-9.328244,-0.897461,-0.037109,0.571167,0,0,0
6,-6.564885,10.732824,-8.351145,-0.886963,-0.004761,0.588989,0,0,0
9,-7.053435,12.274809,-6.763359,-0.793701,-0.041992,0.393677,0,0,0
12,-5.496183,16.961832,-8.671756,-0.888306,-0.085083,0.570557,0,0,0
15,-3.725191,13.160305,-7.603053,-0.880127,-0.046631,0.522949,0,0,0
18,-4.015267,14.305344,-6.839695,-0.826904,-0.051025,0.413696,0,0,0
21,-1.007634,20.351145,-7.78626,-0.880249,-0.099731,0.524902,0,0,0
24,0.244275,16.122137,-7.083969,-0.858521,-0.047974,0.472778,0,0,0
27,1.099237,15.251908,-6.458015,-0.850098,-0.043945,0.539429,0,0,0
30,1.557252,20.870229,-5.923664,-0.867188,-0.037109,0.501343,0,0,0
33,1.038168,19.160305,-5.89313,-0.883911,-0.035522,0.533936,0,0,0
36,2.183206,18.274809,-6.137405,-0.854492,-0.03186,0.532471,0,0,0
39,0.931298,19.587786,-5.572519,-0.835938,-0.007446,0.450439,0,0,0
42,0.824427,20.10687,-6.580153,-0.865112,-0.014526,0.540161,0,0,0
45,1.007634,19.709924,-5.496183,-0.874756,-0.023682,0.57251,0,0,0
48,1.251908,16.473282,-5.160305,-0.855835,-0.019043,0.545166,0,0,0
51,2.091603,20.564885,-5.450382,-0.840942,-0.037964,0.453735,0,0,0
54,2.793893,17.267176,-5.89313,-0.880615,-0.0177,0.572266,0,0,0
57,3.19084,15.29771,-5.068702,-0.849487,-0.018433,0.531128,0,0,0
60,2.717557,19.419847,-5.465649,-0.835938,-0.030029,0.487915,0,0,0
63,3.328244,20.137405,-5.587786,-0.894165,-0.047119,0.571167,0,0,0
66,3.557252,13.572519,-5.801527,-0.847046,-0.000854,0.504761,0,0,0
69,3.755725,18.916031,-5.312977,-0.847046,-0.048584,0.531128,0,0,0
72,5.038168,17.114504,-4.839695,-0.851318,-0.035156,0.511108,0,0,0
75,6.396947,16.503817,-5.40458,-0.873413,-0.044556,0.547852,0,0,0
78,5.145038,16.80916,-4.900763,-0.817505,-0.033813,0.382324,0,0,0
81,5.114504,17.40458,-5.450382,-0.875,-0.035034,0.555542,0,0,0
84,4.931298,17.175573,-4.992366,-0.877563,-0.015503,0.529785,0,0,0
87,4.076336,19.526718,-4.351145,-0.837646,-0.0177,0.40332,0,0,0
90,3.343511,15.770992,-7.51145,-0.910278,0.018677,0.629395,0,0,0
93,1.29771,13.908397,-5.282443,-0.842163,0.014648,0.513794,0,0,0
96,-1.221374,17.755725,-6.183206,-0.816284,0.002075,0.359741,0,0,0
99,-0.549618,15.740458,-8.229008,-0.904907,-0.002808,0.637451,0,0,0
102,-0.961832,13.862595,-5.908397,-0.835938,0.02002,0.451172,0,0,0
105,-1.633588,17.419847,-7.160305,-0.850098,-0.005249,0.487549,0,0,0
108,-1.725191,17.984733,-7.664122,-0.910645,-0.005127,0.627441,0,0,0
111,-1.877863,11.083969,-7.206107,-0.868896,-0.003418,0.571045,0,0,0
114,-4.549618,13.572519,-6.381679,-0.809204,-0.013428,0.401245,0,0,0
117,-3.633588,17.557252,-7.007634,-0.870728,-0.04834,0.500488,0,0,0
120,-1.725191,16.580153,-7.083969,-0.895264,-0.03064,0.548828,0,0,0
123,-0.503817,16.152672,-5.908397,-0.823975,-0.027222,0.426636,0,0,0
126,-0.335878,18.305344,-6.564885,-0.872559,-0.033447,0.541504,0,0,0
129,-0.076336,16.946565,-6.015267,-0.871216,-0.023071,0.540405,0,0,0
132,-0.290076,15.633588,-6.137405,-0.848145,-0.015747,0.476929,0,0,0
135,-1.435115,19.145038,-5.022901,-0.838013,0.002563,0.430664,0,0,0
138,-2.625954,15.862595,-6.931298,-0.902222,-0.029663,0.612671,0,0,0
141,-3.29771,14.381679,-6.381679,-0.841675,0.010254,0.484009,0,0,0
144,-4.427481,18.70229,-5.29771,-0.838501,-0.031738,0.449707,0,0,0
147,-4.10687,16.061069,-6.244275,-0.892334,-0.00769,0.5448,0,0,0
150,-3.221374,17.29771,-4.778626,-0.845459,-0.028198,0.457275,0,0,0
153,-3.29771,16.916031,-7.099237,-0.876343,-0.030273,0.542847,0,0,0
156,-3.541985,14.610687,-6.977099,-0.853027,-0.000732,0.480835,0,0,0
159,-3.862595,15.206107,-6.580153,-0.845459,-0.015259,0.483398,0,0,0
162,-2.564885,19.541985,-5.984733,-0.886597,-0.022461,0.506958,0,0,0
165,-2.687023,16.885496,-6.870229,-0.884399,0.002686,0.49353,0,0,0
168,-3.435115,19.557252,-5.435115,-0.883423,-0.008545,0.503418,0,0,0
171,-5.251908,14.045802,-7.282443,-0.880371,0.027954,0.540894,0,0,0
174,-7.694656,18.580153,-5.755725,-0.859009,-0.001953,0.49353,0,0,0
177,-6.931298,20.59542,-6.076336,-0.856567,-0.032959,0.440918,0,0,0
180,-6.824427,20.503817,-6.80916,-0.897583,-0.01062,0.534302,0,0,0
183,-5.603053,17.862595,-5.389313,-0.877808,-0.026245,0.496582,0,0,0
186,-5.007634,20.030534,-4.580153,-0.848633,-0.049194,0.449463,0,0,0
189,-3.832061,14.076336,-6.396947,-0.860229,-0.02417,0.49939,0,0,0
192,-1.816794,18.534351,-3.801527,-0.822754,-0.049683,0.397339,0,0,0
195,-0.366412,22.427481,-4.030534,-0.870117,-0.039917,0.462402,0,0,0
198,-0.366412,16.671756,-3.603053,-0.892334,-0.006836,0.527466,0,0,0
201,-1.709924,15.923664,-3.709924,-0.840332,-0.023438,0.466797,0,0,0
204,-1.78626,20.320611,-3.374046,-0.861816,-0.045898,0.481812,0,0,0
207,-0.580153,19.114504,-3.312977,-0.871582,-0.020752,0.462769,0,0,0
210,0.580153,21.419847,-3.129771,-0.908813,-0.043457,0.601929,0,0,0
213,-0.198473,16.80916,-4.030534,-0.868286,0.011963,0.458252,0,0,0
216,0.015267,19.343511,-2.183206,-0.861938,-0.027344,0.48938,0,0,0
219,-0.931298,19.954198,-3.450382,-0.885498,-0.009277,0.520264,0,0,0
222,-1.160305,17.312977,-2.931298,-0.880127,0.011108,0.490356,0,0,0
225,-3.267176,17.603053,-2.519084,-0.877075,-0.023071,0.570312,0,0,0
228,-3.618321,18.916031,-2.671756,-0.843506,0.026001,0.374634,0,0,0
231,-3.450382,22.122137,-2.167939,-0.911743,-0.040894,0.591309,0,0,0
234,-3.40458,18.778626,-2.870229,-0.903442,-0.003296,0.574097,0,0,0
237,-4.396947,14.534351,-3.450382,-0.860229,-0.007446,0.506592,0,0,0
240,-3.740458,21.099237,-1.648855,-0.830322,-0.023682,0.406494,0,0,0
243,-5.129771,16.885496,-3.938931,-0.896851,-0.000732,0.552856,0,0,0
246,-5.099237,16.564885,-2.335878,-0.828979,0.001465,0.386597,0,0,0
249,-4.641221,20.625954,-1.587786,-0.882568,-0.047485,0.533447,0,0,0
252,-3.465649,15.236641,-2.977099,-0.869141,-0.017822,0.497437,0,0,0
255,-2.610687,16.045802,-2.045802,-0.83374,-0.005737,0.416382,0,0,0
2,-4.824427,18.671756,-0.396947,-0.86438,0.001221,0.472656,0,0,0
5,-4.931298,19.587786,-0.870229,-0.890015,-0.026001,0.515869,0,0,0
8,-6.030534,15.282443,-2.977099,-0.888794,0.011719,0.510498,0,0,0
11,-5.419847,17.053435,-1.572519,-0.85791,-0.002563,0.448608,0,0,0
14,-6.015267,15.679389,-2.061069,-0.924561,-0.014404,0.582642,0,0,0
17,-7.755725,13.603053,-1.496183,-0.852539,0.038452,0.393066,0,0,0
20,-8.061069,15.572519,-1.389313,-0.872192,-0.019897,0.470459,0,0,0
23,-8.061069,14.152672,-1.877863,-0.893066,0.011841,0.461304,0,0,0
26,-8.167939,14.122137,-0.534351,-0.881104,-0.009033,0.484375,0,0,0
29,-7.618321,16.259542,-0.59542,-0.868164,-0.00647,0.414551,0,0,0
32,-6.030534,16.59542,1.206107,-0.886841,0.007202,0.460938,0,0,0
35,-6.412214,14.641221,0.687023,-0.894287,-0.002319,0.562256,0,0,0
38,-7.587786,13.358779,0.824427,-0.861084,0.013916,0.477173,0,0,0
41,-10.061069,11.603053,0.137405,-0.878052,0.011597,0.518188,0,0,0
44,-10.854962,12,1.038168,-0.859131,-0.012817,0.490601,0,0,0
47,-10.183206,10.946565,0.656489,-0.852661,0.001465,0.465576,0,0,0
50,-9.328244,9.709924,0.854962,-0.874756,-0.030884,0.513184,0,0,0
53,-8.992366,8.992366,1.114504,-0.85144,0.006104,0.45459,0,0,0
56,-10.152672,5.862595,-0.427481,-0.855713,-0.004883,0.508057,0,0,0
59,-10.763359,7.618321,1.587786,-0.857788,-0.014038,0.49585,0,0,0
62,-12.015267,4.167939,-0.763359,-0.880615,-0.030029,0.534912,0,0,0
65,-11.816794,5.877863,2.366412,-0.858521,-0.005859,0.458984,0,0,0
68,-11.801527,6.458015,1.145038,-0.886719,-0.027954,0.509399,0,0,0
71,-10.671756,4.396947,1.068702,-0.873291,-0.002197,0.469727,0,0,0
74,-10.198473,2.778626,0.534351,-0.877197,-0.046143,0.540405,0,0,0
77,-10.473282,2.717557,1.038168,-0.865356,-0.015259,0.501587,0,0,0
80,-11.450382,3.419847,2.183206,-0.873901,-0.045776,0.529541,0,0,0
83,-11.984733,2.030534,1.832061,-0.854858,-0.013306,0.437378,0,0,0
86,-10.992366,4,2.870229,-0.85083,-0.036743,0.437866,0,0,0
89,-10.656489,1.832061,2.015267,-0.908081,-0.08606,0.598389,0,0,0
92,-9.877863,2.59542,4.274809,-0.845825,-0.025635,0.420166,0,0,0
95,-7.801527,5.282443,5.206107,-0.878296,-0.063477,0.492065,0,0,0
98,-5.145038,5.099237,4.717557,-0.900513,-0.062988,0.539795,0,0,0
101,-4.152672,2.687023,5.114504,-0.88208,-0.047363,0.527222,0,0,0
104,-7.236641,0.244275,4.320611,-0.869507,-0.031616,0.494995,0,0,0
107,-9.908397,-4.045802,1.068702,-0.863525,-0.041748,0.511108,0,0,0
110,-8.091603,2.076336,5.40458,-0.837524,-0.057983,0.426147,0,0,0
113,-7.40458,-4.137405,0.671756,-0.92688,-0.115112,0.650635,0,0,0
116,-5.664122,-2.610687,3.358779,-0.848022,-0.040771,0.480957,0,0,0
119,-5.343511,-3.389313,3.374046,-0.867432,-0.08313,0.490845,0,0,0
122,-5.419847,-4.946565,1.496183,-0.884766,-0.050293,0.532471,0,0,0
125,-5.618321,-3.29771,3.587786,-0.844849,-0.030151,0.421265,0,0,0
128,-5.664122,-3.923664,2.503817,-0.891968,-0.07312,0.531982,0,0,0
131,-5.557252,-5.267176,1.877863,-0.881958,-0.038452,0.517334,0,0,0
134,-5.923664,-5.496183,2.290076,-0.869507,-0.060059,0.481689,0,0,0
137,-5.160305,-3.236641,3.099237,-0.866455,-0.039307,0.435181,0,0,0
140,-5.618321,-6.396947,1.496183,-0.895386,-0.055542,0.518921,0,0,0
143,-5.832061,-5.877863,2.458015,-0.882446,-0.069458,0.530029,0,0,0
146,-5.908397,-7.603053,1.496183,-0.852661,-0.038086,0.421875,0,0,0
149,-5.022901,-8.442748,0.778626,-0.872437,-0.082764,0.505371,0,0,0
152,-5.145038,-8.045802,1.541985,-0.857544,-0.030762,0.432861,0,0,0
155,-4.229008,-8.274809,1.709924,-0.865234,-0.077148,0.459229,0,0,0
158,-2.335878,-9.022901,1.083969,-0.881104,-0.080322,0.508179,0,0,0
161,-1.801527,-9.282443,1.801527,-0.866821,-0.034058,0.458252,0,0,0
164,-2.946565,-9.480916,1.145038,-0.87793,-0.031006,0.461182,0,0,0
167,-5.587786,-11.053435,0.412214,-0.891724,-0.045898,0.527344,0,0,0
170,-6.854962,-10.442748,0.412214,-0.883423,-0.057983,0.528076,0,0,0
173,-7.770992,-13.679389,-2,-0.869019,-0.048462,0.478394,0,0,0
176,-4.458015,-7.770992,2.320611,-0.836792,-0.063965,0.449219,0,0,0
179,-3.923664,-8.442748,-0.778626,-0.910767,-0.066528,0.547852,0,0,0
182,-5.389313,-12.473282,-0.900763,-0.861938,0.000854,0.444702,0,0,0
185,-6.610687,-11.053435,0.229008,-0.870483,-0.072388,0.547607,0,0,0
188,-5.755725,-10.931298,-0.091603,-0.862671,-0.030762,0.460327,0,0,0
191,-6.748092,-11.633588,0.320611,-0.894043,-0.074463,0.588501,0,0,0
194,-8.793893,-16.351145,-3.618321,-0.864258,-0.043457,0.502075,0,0,0
197,-7.496183,-11.374046,0.748092,-0.811523,-0.00061,0.348145,0,0,0
200,-7.343511,-12.839695,-0.961832,-0.901245,-0.085083,0.571045,0,0,0
203,-7.083969,-14.48855,-1.633588,-0.862305,-0.027588,0.481567,0,0,0
206,-8.10687,-8.656489,2.564885,-0.813232,0.040283,0.270264,0,0,0
209,-6.351145,-11.755725,-0.580153,-0.930176,-0.071411,0.611938,0,0,0
212,-8.549618,-19.755725,-6.274809,-0.876953,-0.052002,0.561646,0,0,0
215,-11.251908,-4.900763,4.458015,-0.759277,0.12793,0.130493,0,0,0
218,-8.366412,-7.984733,-0.122137,-0.994385,-0.160156,0.699219,0,0,0
221,-10.717557,-18.198473,-6.534351,-0.884277,-0.021729,0.584717,0,0,0
224,-12.977099,-13.51145,-0.580153,-0.778198,-0.022705,0.342651,0,0,0
227,-12.656489,-8.732824,-0.229008,-0.890747,-0.045776,0.451782,0,0,0
230,-10.458015,-8.48855,-0.21374,-0.877075,-0.08374,0.490723,0,0,0
233,-9.175573,-11.877863,-3.053435,-0.882568,-0.046265,0.531006,0,0,0
236,-10.656489,-12.167939,-1.221374,-0.893311,-0.059692,0.568604,0,0,0
239,-9.984733,-9.007634,0.916031,-0.835815,-0.038818,0.417603,0,0,0
242,-11.465649,-10.076336,-0.870229,-0.897705,-0.050781,0.549316,0,0,0
245,-11.679389,-11.633588,-1.343511,-0.897339,-0.088501,0.593994,0,0,0
248,-10.854962,-9.358779,-0.458015,-0.831299,-0.020264,0.402832,0,0,0
251,-7.816794,-4.900763,1.221374,-0.862793,-0.036377,0.413086,0,0,0
254,-8.885496,-8.610687,-1.389313,-0.930176,-0.084595,0.639893,0,0,0
1,-12.564885,-13.221374,-4.824427,-0.845093,0.043945,0.393311,0,0,0
4,-12.977099,-6.122137,1.435115,-0.845459,-0.037842,0.483032,0,0,0
7,-16.793893,-9.664122,-3.847328,-0.891479,-0.064575,0.581787,0,0,0
10,-18.351145,-9.083969,-2.931298,-0.818481,0.013794,0.357178,0,0,0
13,-16.870229,-5.496183,0.671756,-0.898438,-0.06311,0.508667,0,0,0
16,-17.496183,-8.59542,-4,-0.906738,-0.045654,0.588501,0,0,0
19,-17.847328,-11.053435,-1.954198,-0.826416,-0.045532,0.411133,0,0,0
22,-17.175573,-6.48855,-1.969466,-0.866211,-0.045898,0.451294,0,0,0
25,-14,-2.778626,-1.847328,-0.893311,-0.037476,0.47876,0,0,0
28,-15.419847,-7.526718,-4.656489,-0.916626,-0.071777,0.592773,0,0,0
31,-18.183206,-6.778626,-2.656489,-0.858643,0.025391,0.396973,0,0,0
34,-16.458015,-1.694656,0.412214,-0.888306,-0.04541,0.450928,0,0,0
37,-15.709924,0.610687,-1.236641,-0.916992,-0.032349,0.531738,0,0,0
40,-14.274809,-3.160305,4.305344,-0.90564,-0.060913,0.479126,0,0,0
43,-16.305344,-6.412214,-2.320611,-0.873657,-0.01709,0.431152,0,0,0
46,-18.305344,0.259542,-1.770992,-0.839233,0.007812,0.373169,0,0,0
49,-18.045802,1.694656,-1.770992,-0.921387,-0.058472,0.528076,0,0,0
52,-18.793893,-0.732824,-1.053435,-0.898438,-0.037109,0.469849,0,0,0
55,-15.526718,3.557252,4.229008,-0.882568,-0.072632,0.47937,0,0,0
58,-15.435115,2.183206,1.648855,-0.908813,-0.043579,0.503296,0,0,0
61,-16.244275,-0.671756,3.709924,-0.873901,-0.026611,0.399536,0,0,0
64,-13.557252,2.412214,8.59542,-0.895264,-0.085815,0.461914,0,0,0
67,-13.221374,0.564885,3.603053,-0.889648,-0.062378,0.480591,0,0,0
70,-11.633588,1.648855,4.992366,-0.886963,-0.064331,0.509888,0,0,0
73,-10.977099,2.549618,5.725191,-0.884399,-0.057861,0.464844,0,0,0
76,-10.351145,3.832061,6.167939,-0.874023,-0.044922,0.469971,0,0,0
79,-15.358779,0.916031,2.793893,-0.87793,-0.044678,0.488281,0,0,0
82,-15.740458,4.305344,4.396947,-0.850464,0.008423,0.36731,0,0,0
85,-15.984733,0.442748,0.427481,-0.898682,-0.089722,0.517456,0,0,0
88,-15.541985,3.740458,5.328244,-0.851807,-0.030273,0.439941,0,0,0
91,-14.122137,3.236641,5.328244,-0.874023,-0.028564,0.367798,0,0,0
94,-9.78626,4.900763,6.870229,-0.916748,-0.105713,0.556396,0,0,0
97,-7.816794,4.641221,7.496183,-0.906982,-0.077637,0.561157,0,0,0
100,-9.664122,1.450382,4.091603,-0.887085,-0.069092,0.540405,0,0,0
103,-13.312977,3.007634,6.381679,-0.851318,-0.010254,0.414062,0,0,0
106,-13.526718,8.152672,8.412214,-0.871704,-0.032104,0.4021,0,0,0
109,-13.450382,5.648855,4.977099,-0.900269,-0.075928,0.498779,0,0,0
112,-11.358779,5.847328,6.503817,-0.868042,-0.099365,0.525391,0,0,0
115,-9.969466,4.305344,5.770992,-0.863892,-0.054565,0.485718,0,0,0
118,-12,7.282443,9.160305,-0.825806,0.012817,0.341187,0,0,0
121,-10.732824,8.564885,8.748092,-0.899292,-0.043213,0.496704,0,0,0
124,-13.267176,8.137405,7.603053,-0.862183,0.00647,0.435181,0,0,0
127,-14.80916,6.21374,5.603053,-0.878906,-0.06665,0.525513,0,0,0
130,-16.274809,9.221374,7.526718,-0.87207,-0.024292,0.52478,0,0,0
133,-18.641221,4.458015,2.229008,-0.864868,-0.022339,0.437744,0,0,0
136,-19.007634,8.671756,7.618321,-0.868164,-0.062134,0.514893,0,0,0
139,-20.152672,6.946565,5.038168,-0.8573,-0.041626,0.44873,0,0,0
142,-14.870229,10.381679,7.679389,-0.886963,-0.084717,0.545532,0,0,0
145,-16.977099,9.755725,7.89313,-0.85437,-0.041992,0.487793,0,0,0
148,-14.656489,8.091603,6.625954,-0.889648,-0.121216,0.606323,0,0,0
151,-17.038168,5.480916,5.679389,-0.841309,-0.030273,0.47937,0,0,0
154,-14.839695,10.610687,9.572519,-0.867188,-0.103516,0.534546,0,0,0
157,-14.381679,8.198473,6.931298,-0.880493,-0.080811,0.569824,0,0,0
160,-13.618321,4.061069,3.709924,-0.880493,-0.098267,0.62207,0,0,0
163,-16.80916,6.183206,6.70229,-0.820312,-0.019531,0.441406,0,0,0
166,-17.664122,8.610687,6.229008,-0.852417,-0.048706,0.457642,0,0,0
169,-16.198473,4.59542,3.038168,-0.894165,-0.122437,0.617065,0,0,0
172,-17.557252,0.992366,1.633588,-0.836182,-0.002075,0.414307,0,0,0
175,-16.091603,3.725191,6.366412,-0.858521,-0.084961,0.530151,0,0,0
178,-16.717557,3.709924,3.160305,-0.849121,-0.088379,0.526489,0,0,0
181,-16.625954,2.21374,2.244275,-0.860718,-0.056641,0.500854,0,0,0
184,-16.335878,4.671756,3.770992,-0.844849,0.001831,0.404907,0,0,0
187,-11.694656,7.450382,8.427481,-0.888184,-0.094604,0.5354,0,0,0
190,-12.961832,2.458015,-0.610687,-0.85437,-0.007935,0.45752,0,0,0
193,-12.793893,4.305344,6.366412,-0.886963,-0.060059,0.581543,0,0,0
196,-15.847328,6.152672,3.877863,-0.843628,-0.026611,0.445801,0,0,0
199,-17.053435,5.969466,-0.045802,-0.877808,-0.028687,0.526245,0,0,0
202,-17.816794,9.083969,6.274809,-0.838379,0.025879,0.36731,0,0,0
205,-13.51145,7.022901,3.236641,-0.906982,-0.085449,0.555664,0,0,0
208,-16.381679,2.656489,4.045802,-0.892822,-0.036255,0.541016,0,0,0
211,-18.335878,2.351145,5.618321,-0.860229,-0.028564,0.471191,0,0,0
214,-16.091603,7.312977,7.160305,-0.86499,-0.071777,0.497437,0,0,0
217,-14.625954,8.641221,2.885496,-0.896973,-0.069458,0.553833,0,0,0
220,-14.80916,7.251908,1.374046,-0.835083,0.009766,0.392944,0,0,0
223,-19.40458,3.984733,0.229008,-0.887451,-0.036377,0.552246,0,0,0
226,-23.022901,4.900763,2.916031,-0.873779,-0.044312,0.546265,0,0,0
229,-19.587786,6.916031,9.740458,-0.867676,-0.108765,0.474976,0,0,0
232,-12.977099,10.167939,7.984733,-0.877563,-0.112671,0.539795,0,0,0
235,-12.396947,7.29771,3.19084,-0.845581,-0.085205,0.459717,0,0,0
238,-9.89313,11.007634,10.870229,-0.877197,-0.098755,0.52832,0,0,0
241,-8.442748,10.870229,9.343511,-0.842285,-0.162842,0.522339,0,0,0
244,-9.587786,13.083969,-1.847328,-0.858398,-0.021606,0.46228,0,0,0
247,-12.885496,20.748092,1.114504,-0.827271,-0.00354,0.450806,0,0,0
250,-18.610687,18.427481,-6.305344,-0.851318,-0.02478,0.479248,0,0,0
253,-20.519084,22.152672,3.312977,-0.896973,0.056396,0.443481,0,0,0
0,-18.458015,17.694656,0.580153,-0.926758,-0.065063,0.53894,0,0,0
3,-21.862595,9.938931,2.076336,-0.87915,0.009766,0.480103,0,0,0
6,-15.908397,15.801527,11.51145,-0.887695,-0.043213,0.441528,0,0,0
9,-15.603053,8.305344,4.580153,-0.925903,-0.018677,0.479736,0,0,0
12,-14.900763,7.480916,8.335878,-0.854614,-0.037964,0.499634,0,0,0
15,-14.80916,6.335878,6.335878,-0.890015,-0.000977,0.446655,0,0,0
18,-17.725191,5.328244,4.610687,-0.866699,0.004028,0.504395,0,0,0
21,-21.954198,9.984733,9.969466,-0.853394,0.010864,0.416748,0,0,0
24,-18.167939,12.290076,12.534351,-0.912964,-0.04895,0.501587,0,0,0
27,-19.29771,7.419847,9.832061,-0.912598,-0.022095,0.54248,0,0,0
30,-16.625954,9.175573,16.137405,-0.832153,0.003906,0.338867,0,0,0
33,-17.465649,10.396947,6.732824,-0.860107,-0.073975,0.513672,0,0,0
36,-17.496183,19.206107,12.900763,-0.858765,0.049438,0.402344,0,0,0
39,-17.358779,17.770992,12.992366,-0.908081,-0.057373,0.536377,0,0,0
42,-22.244275,10.580153,8.045802,-0.928833,0.00769,0.522705,0,0,0
45,-25.206107,14.687023,9.78626,-0.852417,-0.004517,0.498901,0,0,0
48,-25.969466,14.70229,11.847328,-0.857178,-0.005737,0.394653,0,0,0
51,-24.274809,11.007634,9.29771,-0.910645,-0.08374,0.541138,0,0,0
54,-21.145038,15.099237,12.458015,-0.862915,-0.008057,0.461426,0,0,0
57,-16.519084,14.290076,16.244275,-0.90271,-0.073853,0.5177,0,0,0
60,-18.122137,8.671756,7.770992,-0.904907,-0.046997,0.557129,0,0,0
63,-23.954198,10,13.419847,-0.829102,0.042725,0.396973,0,0,0
66,-22.885496,12.320611,16.122137,-0.894409,-0.09314,0.491943,0,0,0
69,-23.78626,8.717557,6.70229,-0.891846,-0.096191,0.544678,0,0,0
72,-24.610687,11.526718,11.496183,-0.844727,-0.008911,0.434204,0,0,0
75,-23.969466,10.259542,8.70229,-0.887817,-0.059448,0.464478,0,0,0
78,-24.351145,11.160305,9.770992,-0.870361,-0.026978,0.464722,0,0,0
81,-21.541985,12.152672,13.389313,-0.876709,-0.023193,0.422852,0,0,0
84,-15.236641,13.679389,14.091603,-0.899048,-0.093384,0.53064,0,0,0
87,-17.114504,13.083969,10.351145,-0.899536,0.081299,0.441528,0,0,0
90,-23.083969,10.442748,10.534351,-0.888916,-0.041992,0.494507,0,0,0
93,-28.122137,11.29771,7.221374,-0.872437,0.033691,0.467041,0,0,0
96,-34.335878,11.480916,7.145038,-0.876709,0.014526,0.412109,0,0,0
99,-31.206107,14.366412,10.916031,-0.890015,-0.036133,0.476074,0,0,0
102,-29.251908,14.122137,8.763359,-0.891724,-0.021606,0.45459,0,0,0
105,-25.770992,18.335878,15.435115,-0.887207,0.011719,0.470215,0,0,0
108,-23.862595,16.366412,12,-0.891357,0.040283,0.404785,0,0,0
111,-21.78626,18.641221,16.183206,-0.897217,0.053467,0.430176,0,0,0
114,-23.160305,15.679389,13.435115,-0.907227,-0.053223,0.521118,0,0,0
117,-28.458015,16.656489,13.236641,-0.891479,0.078613,0.429565,0,0,0
120,-30.183206,14.045802,10.427481,-0.896851,-0.070068,0.467163,0,0,0
123,-32.030534,15.419847,11.496183,-0.897583,-0.007568,0.50415,0,0,0
126,-29.923664,19.648855,18.076336,-0.866455,-0.018066,0.447876,0,0,0
129,-30.10687,14.900763,8.748092,-0.918457,-0.082275,0.520752,0,0,0
132,-29.480916,16.564885,16.030534,-0.845581,-0.03894,0.473389,0,0,0
135,-26.656489,19.328244,16.549618,-0.880737,-0.02063,0.398438,0,0,0
138,-24.80916,14.21374,13.251908,-0.89917,-0.115723,0.514771,0,0,0
141,-24.992366,16.534351,17.236641,-0.859619,0.009155,0.445068,0,0,0
144,-23.465649,15.664122,15.557252,-0.876587,-0.096436,0.499878,0,0,0
147,-23.648855,15.328244,14.152672,-0.870483,-0.045898,0.503052,0,0,0
150,-24.48855,15.908397,15.053435,-0.871216,-0.032349,0.477661,0,0,0
153,-27.51145,13.832061,12.870229,-0.884155,-0.034912,0.484253,0,0,0
156,-26.992366,16.381679,16.946565,-0.849731,-0.060425,0.50769,0,0,0
159,-31.068702,11.664122,7.282443,-0.911865,-0.01062,0.479004,0,0,0
162,-35.389313,10.70229,11.312977,-0.856689,-0.006104,0.494629,0,0,0
165,-38.732824,13.862595,8.580153,-0.871338,0.037109,0.432251,0,0,0
168,-35.557252,14.717557,14.793893,-0.897949,0.01062,0.450195,0,0,0
171,-33.618321,15.40458,12.519084,-0.885376,-0.055542,0.513062,0,0,0
174,-34.183206,13.862595,8.854962,-0.884277,-0.014282,0.495239,0,0,0
177,-34.656489,16.10687,15.816794,-0.88147,0.037598,0.437744,0,0,0
180,-32.152672,15.832061,14.610687,-0.885742,-0.067017,0.506592,0,0,0
183,-34.992366,17.694656,14.946565,-0.869263,0.063843,0.454468,0,0,0
186,-37.114504,12.045802,14.519084,-0.880737,-0.089233,0.521362,0,0,0
189,-40.320611,14.519084,13.419847,-0.854004,0.000732,0.480469,0,0,0
192,-37.557252,14.091603,18.946565,-0.874634,-0.007568,0.41687,0,0,0
195,-32.59542,13.89313,19.175573,-0.863403,-0.157959,0.557373,0,0,0
198,-33.679389,10.916031,14.427481,-0.861694,-0.074585,0.525757,0,0,0
201,-37.007634,10.167939,14.854962,-0.868652,-0.040161,0.498657,0,0,0
204,-39.206107,11.816794,16.534351,-0.86731,0.006104,0.413086,0,0,0
207,-37.053435,12.931298,19.022901,-0.885498,-0.067871,0.473145,0,0,0
210,-32.80916,10.442748,21.114504,-0.901855,-0.050537,0.461914,0,0,0
213,-28.412214,10.80916,23.740458,-0.863281,-0.095947,0.496582,0,0,0
216,-27.068702,11.740458,19.175573,-0.87207,-0.058228,0.508667,0,0,0
219,-31.19084,7.343511,17.954198,-0.869263,-0.129883,0.525024,0,0,0
222,-33.832061,10.564885,20.076336,-0.854248,-0.041382,0.512207,0,0,0
225,-35.343511,12.229008,19.328244,-0.88623,0.01416,0.416992,0,0,0
228,-37.709924,9.129771,19.374046,-0.89978,-0.048218,0.460938,0,0,0
231,-39.038168,9.389313,17.541985,-0.849121,-0.109741,0.484741,0,0,0
234,-37.282443,10.977099,16.977099,-0.882812,-0.031982,0.455566,0,0,0
237,-32.152672,13.832061,25.29771,-0.889526,-0.03479,0.47168,0,0,0
240,-28.519084,14.091603,22.671756,-0.889404,-0.04248,0.459473,0,0,0
243,-28.335878,15.389313,22.625954,-0.867065,0.012085,0.446289,0,0,0
246,-31.862595,13.312977,19.038168,-0.877319,-0.111694,0.516235,0,0,0
249,-36.244275,12.870229,17.358779,-0.87854,-0.030396,0.499268,0,0,0
252,-42.442748,11.923664,16.152672,-0.883789,-0.011963,0.456299,0,0,0
255,-43.587786,10.717557,17.603053,-0.871582,-0.067627,0.490112,0,0,0
2,-44.305344,10.961832,17.78626,-0.85022,-0.127808,0.527954,0,0,0
5,-44.229008,9.740458,16.549618,-0.896484,-0.01355,0.461182,0,0,0
8,-39.984733,7.969466,21.083969,-0.860229,-0.061279,0.456055,0,0,0
11,-43.358779,2.59542,9.083969,-0.869141,-0.167236,0.50647,0,0,0
14,-44,4.458015,12.122137,-0.852783,-0.073486,0.509644,0,0,0
17,-41.129771,5.328244,18.503817,-0.86438,-0.081909,0.509399,0,0,0
20,-41.770992,4.10687,9.862595,-0.85437,-0.141602,0.526367,0,0,0
23,-40.717557,6.442748,18.305344,-0.890747,0.059814,0.43811,0,0,0
26,-38.10687,2.70229,16.045802,-0.867065,-0.099731,0.455811,0,0,0
29,-39.89313,3.572519,11.175573,-0.856934,-0.045898,0.493896,0,0,0
32,-43.679389,2.48855,13.847328,-0.884155,-0.03125,0.450439,0,0,0
35,-46.916031,-0.061069,11.450382,-0.874512,-0.13916,0.509033,0,0,0
38,-43.648855,2.519084,15.282443,-0.885498,-0.034546,0.484619,0,0,0
41,-37.862595,1.389313,14.80916,-0.86792,-0.141968,0.478394,0,0,0
44,-37.984733,1.160305,12.839695,-0.904541,-0.019043,0.476807,0,0,0
47,-37.419847,0.549618,14.412214,-0.87793,-0.012329,0.442383,0,0,0
50,-39.389313,-0.671756,12.030534,-0.853149,-0.130615,0.522461,0,0,0
