Packet number,Gyroscope X (deg/s),Gyroscope Y (deg/s),Gyroscope Z (deg/s),Accelerometer X (g),Accelerometer Y (g),Accelerometer Z (g),Magnetometer X (G),Magnetometer Y (G),Magnetometer Z (G)
53,3.587786,1.984733,0.778626,-0.599976,0.131592,0.779419,0,0,0
56,3.572519,1.984733,0.931298,-0.603027,0.133301,0.784668,0,0,0
59,3.526718,1.923664,1.236641,-0.603638,0.130371,0.787842,0,0,0
62,3.648855,1.908397,1.175573,-0.604614,0.129761,0.785156,0,0,0
65,3.633588,1.954198,1.251908,-0.606812,0.129639,0.788696,0,0,0
68,3.664122,1.954198,1.267176,-0.605713,0.130615,0.787964,0,0,0
71,3.618321,1.908397,1.29771,-0.605103,0.129517,0.789551,0,0,0
74,3.633588,1.923664,1.267176,-0.601562,0.129395,0.789307,0,0,0
77,3.541985,1.89313,1.221374,-0.605591,0.129517,0.787842,0,0,0
80,3.557252,1.938931,1.221374,-0.607178,0.130371,0.78894,0,0,0
83,3.496183,1.923664,1.175573,-0.60498,0.128418,0.787354,0,0,0
86,3.450382,1.816794,1.389313,-0.606445,0.13208,0.789307,0,0,0
89,3.435115,1.740458,1.236641,-0.603271,0.130005,0.78833,0,0,0
92,3.328244,1.755725,1.175573,-0.601196,0.130737,0.786377,0,0,0
95,3.19084,2.015267,1.129771,-0.597778,0.128418,0.789917,0,0,0
98,3.038168,1.740458,0.916031,-0.600952,0.129395,0.783813,0,0,0
101,2.80916,1.648855,0.717557,-0.600586,0.13147,0.783203,0,0,0
104,2.656489,1.725191,0.70229,-0.597412,0.129883,0.78479,0,0,0
107,2.549618,1.603053,0.442748,-0.602783,0.130859,0.784668,0,0,0
110,2.335878,1.450382,0.305344,-0.602173,0.12793,0.789307,0,0,0
113,2.061069,1.328244,0.229008,-0.600464,0.132568,0.788086,0,0,0
116,1.908397,1.343511,-0.076336,-0.605469,0.128418,0.784912,0,0,0
119,1.923664,1.328244,-0.045802,-0.61145,0.131226,0.783691,0,0,0
122,2.045802,1.374046,-0.21374,-0.608154,0.125732,0.785156,0,0,0
125,2.015267,1.435115,-0.244275,-0.608276,0.12793,0.787964,0,0,0
128,2.015267,1.450382,-0.259542,-0.607788,0.12793,0.786865,0,0,0
131,2.198473,1.541985,-0.412214,-0.610229,0.126099,0.793335,0,0,0
134,2.167939,1.480916,-0.564885,-0.614502,0.130127,0.79126,0,0,0
137,2.122137,1.40458,-0.580153,-0.614868,0.132935,0.790894,0,0,0
140,2.076336,1.419847,-0.885496,-0.616089,0.133301,0.789185,0,0,0
143,2.030534,1.40458,-0.824427,-0.617798,0.141113,0.7948,0,0,0
146,1.755725,1.358779,-0.824427,-0.617676,0.146118,0.789429,0,0,0
149,1.633588,1.480916,-0.778626,-0.619629,0.145752,0.792358,0,0,0
152,1.496183,1.358779,-0.717557,-0.622192,0.155273,0.788818,0,0,0
155,1.007634,1.435115,-0.564885,-0.619629,0.156616,0.788452,0,0,0
158,0.641221,1.389313,-0.381679,-0.618774,0.160156,0.789062,0,0,0
161,0.427481,1.328244,-0.21374,-0.621338,0.161133,0.790527,0,0,0
164,0.10687,1.19084,0,-0.620728,0.159912,0.789429,0,0,0
167,-0.305344,1.129771,0.229008,-0.623901,0.1604,0.78772,0,0,0
170,-0.473282,1.068702,0.412214,-0.627075,0.157593,0.787842,0,0,0
173,-0.885496,1.022901,0.59542,-0.626587,0.157471,0.789795,0,0,0
176,-1.099237,0.977099,0.793893,-0.624146,0.14978,0.79248,0,0,0
179,-1.267176,1.038168,1.053435,-0.627319,0.144897,0.792114,0,0,0
182,-1.496183,1.053435,1.145038,-0.629883,0.138672,0.796021,0,0,0
185,-1.648855,0.946565,1.465649,-0.627808,0.132202,0.792603,0,0,0
188,-1.541985,1.114504,1.465649,-0.630249,0.128418,0.796387,0,0,0
191,-1.40458,1.022901,1.679389,-0.630371,0.127075,0.797974,0,0,0
194,-1.251908,0.961832,1.832061,-0.62854,0.116089,0.799072,0,0,0
197,-1.175573,0.839695,1.847328,-0.627197,0.114258,0.803589,0,0,0
200,-0.793893,0.763359,1.954198,-0.629028,0.113525,0.798828,0,0,0
203,-0.519084,0.656489,1.954198,-0.629272,0.108398,0.800537,0,0,0
206,-0.366412,0.70229,1.877863,-0.629272,0.106567,0.799072,0,0,0
209,-0.198473,0.763359,1.755725,-0.628418,0.10376,0.796875,0,0,0
212,-0.076336,0.732824,1.78626,-0.626099,0.103394,0.79895,0,0,0
215,0.381679,0.854962,1.694656,-0.624756,0.107056,0.796875,0,0,0
218,0.366412,0.885496,1.801527,-0.624268,0.107666,0.793579,0,0,0
221,0.763359,1.053435,1.832061,-0.625732,0.105225,0.795166,0,0,0
224,1.083969,1.145038,1.801527,-0.625732,0.106812,0.790527,0,0,0
227,1.29771,1.312977,1.725191,-0.627686,0.109375,0.793091,0,0,0
230,1.328244,1.389313,1.770992,-0.625366,0.108521,0.79541,0,0,0
233,1.40458,1.587786,1.725191,-0.624268,0.112427,0.791016,0,0,0
236,1.419847,1.755725,1.603053,-0.625244,0.112549,0.79541,0,0,0
239,1.160305,1.694656,1.633588,-0.626343,0.114258,0.795654,0,0,0
242,1.328244,1.694656,1.358779,-0.631714,0.117798,0.803345,0,0,0
245,1.129771,1.526718,1.312977,-0.630371,0.116211,0.80957,0,0,0
248,1.099237,1.40458,1.358779,-0.633911,0.113647,0.814209,0,0,0
251,0.824427,0.992366,1.175573,-0.635864,0.115356,0.819946,0,0,0
254,0.80916,0.580153,0.992366,-0.636963,0.11145,0.827881,0,0,0
1,0.748092,0.045802,0.717557,-0.640381,0.111572,0.831665,0,0,0
4,0.625954,-0.687023,0.519084,-0.641846,0.113159,0.830444,0,0,0
7,0.442748,-1.160305,0.259542,-0.642944,0.113892,0.832764,0,0,0
10,0.061069,-1.557252,0.015267,-0.64209,0.11499,0.831543,0,0,0
13,0.030534,-1.954198,-0.244275,-0.638062,0.113403,0.826294,0,0,0
16,-0.229008,-2.290076,-0.351145,-0.638184,0.112915,0.825684,0,0,0
19,-0.305344,-2.641221,-0.458015,-0.634888,0.114868,0.818726,0,0,0
22,-0.274809,-2.931298,-0.48855,-0.633545,0.116089,0.817627,0,0,0
25,-0.427481,-3.038168,-0.534351,-0.629639,0.113037,0.807129,0,0,0
28,-0.381679,-3.145038,-0.534351,-0.629517,0.117798,0.807007,0,0,0
31,-0.320611,-3.083969,-0.549618,-0.624756,0.116089,0.804321,0,0,0
34,-0.244275,-3.038168,-0.519084,-0.624634,0.120239,0.799072,0,0,0
37,-0.183206,-2.900763,-0.503817,-0.619263,0.115845,0.790894,0,0,0
40,0.030534,-2.854962,-0.396947,-0.619385,0.115601,0.791382,0,0,0
43,0.015267,-2.80916,-0.259542,-0.617676,0.116455,0.790527,0,0,0
46,0.274809,-2.748092,-0.320611,-0.618286,0.115234,0.792725,0,0,0
49,0.381679,-2.503817,-0.122137,-0.61731,0.113403,0.793213,0,0,0
52,0.381679,-2.48855,-0.183206,-0.61438,0.112793,0.792114,0,0,0
55,0.625954,-2.412214,-0.10687,-0.613159,0.115845,0.792114,0,0,0
58,0.70229,-2.290076,0.076336,-0.613647,0.118164,0.787598,0,0,0
61,0.59542,-2.030534,0.045802,-0.612061,0.114136,0.788818,0,0,0
64,0.732824,-1.908397,0,-0.613037,0.121094,0.789795,0,0,0
67,0.854962,-1.89313,0.244275,-0.609863,0.118408,0.78479,0,0,0
70,0.885496,-1.725191,0.21374,-0.608032,0.11792,0.783936,0,0,0
73,0.839695,-1.51145,0.381679,-0.606323,0.117188,0.782959,0,0,0
76,1.022901,-1.40458,0.351145,-0.60437,0.119141,0.784058,0,0,0
79,0.870229,-1.19084,0.519084,-0.608643,0.118896,0.785278,0,0,0
82,1.038168,-1.099237,0.427481,-0.603394,0.121094,0.786499,0,0,0
85,0.977099,-0.961832,0.564885,-0.603882,0.12207,0.78833,0,0,0
88,0.870229,-0.854962,0.671756,-0.602051,0.119385,0.786865,0,0,0
91,0.80916,-0.564885,0.763359,-0.600098,0.118408,0.783936,0,0,0
94,0.80916,-0.442748,0.793893,-0.597534,0.121216,0.78418,0,0,0
97,0.885496,-0.21374,1.007634,-0.601074,0.120239,0.785645,0,0,0
100,0.625954,-0.167939,1.068702,-0.59729,0.118896,0.784424,0,0,0
103,0.534351,0.030534,1.221374,-0.595215,0.113525,0.784546,0,0,0
106,0.778626,0.229008,1.129771,-0.593994,0.113647,0.787598,0,0,0
109,0.900763,0.366412,1.236641,-0.592773,0.110962,0.786011,0,0,0
112,1.083969,0.519084,1.343511,-0.590088,0.112549,0.786621,0,0,0
115,1.114504,0.641221,1.343511,-0.591431,0.106812,0.78772,0,0,0
118,1.312977,0.793893,1.328244,-0.592285,0.110718,0.782715,0,0,0
121,1.51145,1.129771,1.389313,-0.591553,0.112061,0.781128,0,0,0
124,1.633588,1.29771,1.328244,-0.590942,0.109863,0.775635,0,0,0
127,1.603053,1.51145,1.343511,-0.589722,0.11145,0.780762,0,0,0
130,1.832061,1.648855,1.267176,-0.590942,0.114014,0.778076,0,0,0
133,1.908397,1.923664,1.358779,-0.594116,0.115723,0.782959,0,0,0
136,1.725191,1.954198,1.374046,-0.596802,0.113892,0.786011,0,0,0
139,1.816794,2.030534,1.267176,-0.599121,0.113159,0.789917,0,0,0
142,1.648855,2.061069,1.160305,-0.599365,0.110962,0.790527,0,0,0
145,1.603053,2.030534,1.19084,-0.602661,0.11377,0.791626,0,0,0
148,1.862595,2.21374,0.916031,-0.606812,0.112427,0.79895,0,0,0
151,1.572519,1.984733,0.885496,-0.607422,0.111328,0.803833,0,0,0
154,1.603053,1.969466,0.625954,-0.609009,0.112305,0.806519,0,0,0
157,1.557252,1.618321,0.580153,-0.609131,0.114868,0.806519,0,0,0
160,1.236641,1.343511,0.290076,-0.613403,0.11377,0.806152,0,0,0
163,1.267176,1.145038,0.21374,-0.610718,0.114014,0.80957,0,0,0
166,1.114504,0.931298,0,-0.615601,0.116699,0.808472,0,0,0
169,0.900763,0.564885,-0.366412,-0.614258,0.11792,0.809326,0,0,0
172,0.870229,0.244275,-0.549618,-0.615234,0.120483,0.807251,0,0,0
175,0.534351,0.015267,-0.534351,-0.613647,0.122681,0.805908,0,0,0
178,0.458015,-0.335878,-0.732824,-0.615479,0.130249,0.80249,0,0,0
181,-0.10687,-0.473282,-0.717557,-0.612793,0.131958,0.803345,0,0,0
184,-0.274809,-0.763359,-0.916031,-0.610474,0.133667,0.800293,0,0,0
187,-0.48855,-0.80916,-0.80916,-0.609375,0.13562,0.79541,0,0,0
190,-0.778626,-0.916031,-0.70229,-0.609741,0.132812,0.796021,0,0,0
193,-0.732824,-0.854962,-0.748092,-0.608154,0.131714,0.78894,0,0,0
196,-1.129771,-0.854962,-0.70229,-0.60498,0.134766,0.790283,0,0,0
199,-1.129771,-0.900763,-0.48855,-0.603638,0.133057,0.792358,0,0,0
202,-1.175573,-0.870229,-0.534351,-0.604858,0.130981,0.791626,0,0,0
205,-1.175573,-0.885496,-0.320611,-0.606079,0.12854,0.789307,0,0,0
208,-1.114504,-0.870229,-0.381679,-0.603271,0.130615,0.786987,0,0,0
211,-1.312977,-0.931298,-0.351145,-0.605225,0.127197,0.790161,0,0,0
214,-1.557252,-0.854962,-0.305344,-0.604004,0.128418,0.789551,0,0,0
217,-1.664122,-0.931298,-0.274809,-0.598511,0.123413,0.790161,0,0,0
220,-1.954198,-0.763359,-0.458015,-0.600342,0.122314,0.789429,0,0,0
223,-2.045802,-1.007634,-0.381679,-0.599365,0.123169,0.789917,0,0,0
226,-2.183206,-0.961832,-0.473282,-0.603271,0.121338,0.791138,0,0,0
229,-2.091603,-0.977099,-0.549618,-0.599854,0.123657,0.787842,0,0,0
232,-2.21374,-0.977099,-0.458015,-0.600464,0.119385,0.783325,0,0,0
235,-2.183206,-0.885496,-0.473282,-0.60144,0.115723,0.781982,0,0,0
238,-1.908397,-0.656489,-0.427481,-0.599121,0.111938,0.783203,0,0,0
241,-1.862595,-0.580153,-0.305344,-0.598022,0.111572,0.785767,0,0,0
244,-1.816794,-0.305344,-0.274809,-0.601196,0.105225,0.784302,0,0,0
247,-1.480916,-0.152672,-0.320611,-0.602051,0.107788,0.78894,0,0,0
250,-1.40458,-0.045802,-0.351145,-0.601929,0.104248,0.790283,0,0,0
253,-1.312977,-0.122137,-0.335878,-0.602661,0.105225,0.790771,0,0,0
0,-1.19084,-0.091603,-0.48855,-0.605957,0.101685,0.793457,0,0,0
3,-0.977099,-0.10687,-0.473282,-0.60437,0.103271,0.798096,0,0,0
6,-0.732824,-0.290076,-0.580153,-0.605591,0.103516,0.796387,0,0,0
9,-0.656489,-0.320611,-0.59542,-0.60437,0.103149,0.798096,0,0,0
12,-0.412214,-0.442748,-0.717557,-0.608154,0.108643,0.797974,0,0,0
15,-0.48855,-0.656489,-0.717557,-0.606567,0.110962,0.797241,0,0,0
18,-0.351145,-0.824427,-0.854962,-0.604736,0.113159,0.794556,0,0,0
21,-0.305344,-0.793893,-0.885496,-0.60437,0.117432,0.793457,0,0,0
24,-0.412214,-1.038168,-0.748092,-0.607666,0.118408,0.790039,0,0,0
27,-0.259542,-0.900763,-0.717557,-0.606567,0.124268,0.78833,0,0,0
30,-0.473282,-0.80916,-0.671756,-0.603516,0.121948,0.784546,0,0,0
33,-0.59542,-0.793893,-0.625954,-0.604004,0.126099,0.779785,0,0,0
36,-0.656489,-0.580153,-0.625954,-0.604858,0.125366,0.779053,0,0,0
39,-0.687023,-0.396947,-0.534351,-0.602173,0.126709,0.780151,0,0,0
42,-0.824427,-0.198473,-0.320611,-0.602051,0.124634,0.776978,0,0,0
45,-0.656489,-0.122137,-0.274809,-0.600952,0.125732,0.778809,0,0,0
48,-0.687023,0,-0.137405,-0.602661,0.125366,0.778809,0,0,0
51,-0.671756,0.122137,-0.10687,-0.603149,0.123413,0.780029,0,0,0
54,-0.793893,0.015267,0.030534,-0.598877,0.127075,0.782227,0,0,0
57,-0.671756,0.122137,0.167939,-0.602905,0.12439,0.786377,0,0,0
60,-0.564885,0.183206,0.122137,-0.603882,0.119629,0.7854,0,0,0
63,-0.503817,0.015267,0.458015,-0.605103,0.118652,0.789917,0,0,0
66,-0.351145,0.015267,0.366412,-0.610229,0.119629,0.793335,0,0,0
69,-0.21374,-0.076336,0.412214,-0.610352,0.116211,0.794067,0,0,0
72,-0.076336,-0.091603,0.442748,-0.613037,0.117798,0.794922,0,0,0
75,0.061069,-0.366412,0.48855,-0.612305,0.116455,0.792969,0,0,0
78,0.045802,-0.427481,0.442748,-0.614136,0.116211,0.797363,0,0,0
81,0.396947,-0.564885,0.534351,-0.612061,0.117188,0.796631,0,0,0
84,0.259542,-0.549618,0.519084,-0.610474,0.118408,0.798828,0,0,0
87,0.442748,-0.687023,0.473282,-0.609985,0.120361,0.796997,0,0,0
90,0.366412,-0.916031,0.442748,-0.609497,0.123901,0.792236,0,0,0
93,0.396947,-1.083969,0.534351,-0.607422,0.125488,0.78894,0,0,0
96,0.458015,-0.977099,0.534351,-0.603394,0.130981,0.782227,0,0,0
99,0.290076,-0.977099,0.625954,-0.602417,0.130615,0.777344,0,0,0
102,0.320611,-0.916031,0.610687,-0.604736,0.128418,0.780884,0,0,0
105,0.198473,-0.778626,0.80916,-0.600464,0.133179,0.77417,0,0,0
108,0.137405,-0.656489,0.900763,-0.600586,0.132568,0.77478,0,0,0
111,0.21374,-0.442748,1.083969,-0.597534,0.133667,0.769165,0,0,0
114,0.21374,-0.183206,1.251908,-0.595215,0.130127,0.768677,0,0,0
117,0.335878,0.122137,1.267176,-0.598511,0.133179,0.766357,0,0,0
120,0.320611,0.198473,1.328244,-0.60144,0.133057,0.768433,0,0,0
123,0.366412,0.564885,1.343511,-0.600464,0.129272,0.766113,0,0,0
126,0.137405,0.763359,1.480916,-0.600586,0.12793,0.76709,0,0,0
129,0.198473,0.992366,1.40458,-0.604736,0.127441,0.769897,0,0,0
132,0.320611,1.145038,1.496183,-0.600952,0.125366,0.771118,0,0,0
135,0.061069,1.221374,1.648855,-0.603027,0.126099,0.776733,0,0,0
138,0.045802,1.221374,1.603053,-0.603394,0.122437,0.783447,0,0,0
141,0.122137,1.114504,1.664122,-0.609009,0.124634,0.786499,0,0,0
144,0.076336,0.977099,1.587786,-0.613647,0.121338,0.787842,0,0,0
147,0.10687,0.778626,1.587786,-0.616577,0.118408,0.798828,0,0,0
150,0.167939,0.625954,1.694656,-0.618774,0.116577,0.800293,0,0,0
153,0.381679,0.335878,1.633588,-0.620483,0.114258,0.805542,0,0,0
156,0.458015,0.167939,1.587786,-0.625732,0.112671,0.807983,0,0,0
159,0.717557,-0.030534,1.572519,-0.625854,0.114136,0.811279,0,0,0
162,0.793893,-0.503817,1.51145,-0.626465,0.114746,0.810547,0,0,0
165,0.763359,-1.007634,1.29771,-0.623779,0.11792,0.813354,0,0,0
168,0.656489,-1.51145,1.29771,-0.623779,0.120239,0.812622,0,0,0
171,0.442748,-1.938931,1.358779,-0.621826,0.125,0.804932,0,0,0
174,0.305344,-2.183206,1.282443,-0.621704,0.12793,0.806763,0,0,0
177,0.061069,-2.412214,1.358779,-0.620728,0.124023,0.797852,0,0,0
180,0,-2.59542,1.312977,-0.618652,0.126465,0.797363,0,0,0
183,-0.076336,-2.763359,1.480916,-0.616089,0.12793,0.793091,0,0,0
186,-0.030534,-2.793893,1.450382,-0.616455,0.124878,0.793335,0,0,0
189,-0.045802,-2.900763,1.709924,-0.612793,0.125,0.788818,0,0,0
192,0.244275,-2.961832,1.694656,-0.609497,0.122681,0.787109,0,0,0
195,0.335878,-2.885496,1.51145,-0.606567,0.12207,0.786865,0,0,0
198,0.229008,-2.992366,1.496183,-0.606812,0.124634,0.782104,0,0,0
201,0.137405,-3.175573,1.679389,-0.602905,0.123047,0.782715,0,0,0
204,0.091603,-3.175573,1.740458,-0.603882,0.123657,0.780884,0,0,0
207,-0.167939,-3.160305,1.541985,-0.596436,0.120483,0.778076,0,0,0
210,-0.167939,-3.114504,1.389313,-0.597656,0.120483,0.774414,0,0,0
213,-0.366412,-3.29771,1.618321,-0.595215,0.11438,0.771362,0,0,0
216,-0.335878,-3.083969,1.19084,-0.599976,0.119263,0.772949,0,0,0
219,-0.290076,-2.900763,1.221374,-0.599854,0.111938,0.770264,0,0,0
222,-0.305344,-2.717557,1.160305,-0.594971,0.111572,0.769531,0,0,0
225,-0.305344,-2.519084,1.007634,-0.598267,0.110718,0.766602,0,0,0
228,0.122137,-2.351145,1.068702,-0.598755,0.107788,0.766235,0,0,0
231,0.320611,-2.305344,1.160305,-0.590454,0.104858,0.765625,0,0,0
234,0.564885,-1.694656,0.793893,-0.596436,0.108276,0.773438,0,0,0
237,0.625954,-1.877863,1.19084,-0.601685,0.109619,0.775391,0,0,0
240,0.854962,-1.618321,0.442748,-0.596924,0.113159,0.775757,0,0,0
243,0.656489,-1.541985,0.48855,-0.593384,0.113037,0.774902,0,0,0
246,0.610687,-1.496183,0.503817,-0.595337,0.111694,0.772949,0,0,0
249,0.793893,-1.526718,0.198473,-0.59314,0.115601,0.77478,0,0,0
252,0.549618,-1.343511,0.122137,-0.591309,0.120117,0.777222,0,0,0
255,0.610687,-1.221374,0.274809,-0.594238,0.119995,0.772583,0,0,0
2,0.503817,-1.099237,0.274809,-0.591064,0.120728,0.772949,0,0,0
5,0.442748,-0.824427,0.305344,-0.591919,0.122192,0.772339,0,0,0
8,0.687023,-0.687023,0.625954,-0.594849,0.117798,0.771729,0,0,0
11,0.931298,-0.610687,0.519084,-0.59314,0.117676,0.772095,0,0,0
14,1.083969,-0.335878,0.10687,-0.59375,0.121826,0.774658,0,0,0
17,0.763359,-0.366412,0.564885,-0.599854,0.124023,0.77832,0,0,0
20,1.022901,-0.442748,0.854962,-0.598389,0.113159,0.780884,0,0,0
23,1.083969,-0.366412,0.259542,-0.60498,0.117798,0.783447,0,0,0
26,0.748092,-0.427481,0.152672,-0.603027,0.117798,0.786621,0,0,0
29,0.778626,-0.717557,0.671756,-0.605103,0.114502,0.788818,0,0,0
32,1.083969,-0.534351,0.366412,-0.610229,0.11438,0.790527,0,0,0
35,1.038168,-0.59542,0.167939,-0.608521,0.115845,0.789551,0,0,0
38,0.916031,-0.793893,0.198473,-0.606201,0.115112,0.790649,0,0,0
41,1.160305,-0.992366,0.458015,-0.615234,0.116333,0.787842,0,0,0
44,1.29771,-0.916031,0.366412,-0.609131,0.117188,0.788452,0,0,0
47,1.541985,-1.007634,0.335878,-0.613281,0.115723,0.788696,0,0,0
50,1.541985,-0.900763,0.366412,-0.609741,0.118652,0.786011,0,0,0
53,1.633588,-1.053435,0.839695,-0.611816,0.121216,0.786255,0,0,0
56,1.603053,-0.977099,0.824427,-0.610229,0.118774,0.781616,0,0,0
59,1.694656,-0.839695,0.503817,-0.614258,0.124756,0.781982,0,0,0
62,1.480916,-0.992366,1.129771,-0.613892,0.125732,0.783569,0,0,0
65,1.618321,-0.564885,1.038168,-0.60791,0.122314,0.777344,0,0,0
68,1.664122,-0.473282,0.763359,-0.604614,0.121948,0.770752,0,0,0
71,1.572519,-0.931298,1.969466,-0.611938,0.12207,0.776733,0,0,0
74,2,-0.335878,1.603053,-0.604492,0.116699,0.775757,0,0,0
77,2,0.091603,1.19084,-0.608398,0.128174,0.778442,0,0,0
80,1.877863,-0.320611,2.320611,-0.610718,0.120361,0.777588,0,0,0
83,2.48855,0.167939,1.938931,-0.607544,0.119385,0.777832,0,0,0
86,2.412214,0.183206,1.709924,-0.602905,0.116943,0.769409,0,0,0
89,2.458015,0.091603,2.21374,-0.609863,0.118042,0.779663,0,0,0
92,2.305344,0.290076,2.167939,-0.612671,0.120728,0.786255,0,0,0
95,2.442748,0.320611,2.198473,-0.611572,0.119141,0.783569,0,0,0
98,2.519084,0.21374,2.473282,-0.609009,0.119873,0.784668,0,0,0
101,2.854962,0.320611,2.427481,-0.612671,0.116577,0.788696,0,0,0
104,2.977099,0.351145,2.122137,-0.608521,0.118652,0.783081,0,0,0
107,2.885496,0.259542,2.259542,-0.607422,0.118286,0.78125,0,0,0
110,3.007634,0.137405,2.534351,-0.608398,0.119385,0.784912,0,0,0
113,2.793893,0.427481,1.984733,-0.608643,0.122681,0.787231,0,0,0
116,2.763359,-0.015267,2.198473,-0.609497,0.122681,0.784668,0,0,0
119,2.732824,0.015267,2.320611,-0.609375,0.118774,0.788086,0,0,0
122,2.80916,-0.076336,2.122137,-0.610107,0.124268,0.789307,0,0,0
125,2.687023,-0.229008,2.015267,-0.609497,0.126709,0.78772,0,0,0
128,2.671756,-0.244275,2.137405,-0.614746,0.129639,0.786987,0,0,0
131,2.458015,-0.458015,2.442748,-0.610718,0.128296,0.787598,0,0,0
134,2.732824,-0.549618,1.984733,-0.613525,0.128662,0.785522,0,0,0
137,2.625954,-0.687023,2.244275,-0.613037,0.129517,0.783691,0,0,0
140,2.610687,-0.503817,1.908397,-0.610352,0.128418,0.786255,0,0,0
143,2.427481,-0.59542,1.816794,-0.615479,0.137207,0.789062,0,0,0
146,2.198473,-0.854962,2.290076,-0.612427,0.13269,0.787842,0,0,0
149,2.167939,-0.656489,2,-0.61499,0.13916,0.789062,0,0,0
152,2.167939,-0.900763,2.167939,-0.612183,0.140137,0.785278,0,0,0
155,2,-0.763359,2.274809,-0.610229,0.137695,0.786377,0,0,0
158,2.045802,-1.007634,2.305344,-0.607056,0.137573,0.783081,0,0,0
161,1.862595,-0.931298,2.564885,-0.606812,0.140381,0.7854,0,0,0
164,1.709924,-1.022901,2.625954,-0.599609,0.138916,0.780884,0,0,0
167,1.480916,-1.022901,2.274809,-0.603882,0.139893,0.781494,0,0,0
170,1.145038,-1.068702,2.137405,-0.599121,0.140869,0.783936,0,0,0
173,0.671756,-1.175573,2.412214,-0.601074,0.140991,0.778931,0,0,0
176,0.503817,-1.236641,2.580153,-0.596558,0.136475,0.782593,0,0,0
179,0.442748,-1.251908,2.244275,-0.602051,0.135254,0.782349,0,0,0
182,0.48855,-1.19084,2.458015,-0.598267,0.131104,0.784424,0,0,0
185,0.641221,-1.053435,2.427481,-0.601562,0.131836,0.777466,0,0,0
188,0.931298,-1.068702,2.503817,-0.602051,0.126343,0.777832,0,0,0
191,1.206107,-0.961832,2.503817,-0.598999,0.131348,0.779175,0,0,0
194,1.572519,-0.854962,2.290076,-0.602539,0.134644,0.775391,0,0,0
197,1.587786,-0.70229,2.305344,-0.598511,0.142212,0.780884,0,0,0
200,1.267176,-0.519084,2.183206,-0.602173,0.143921,0.779297,0,0,0
203,0.778626,-0.442748,2.167939,-0.597778,0.146118,0.775024,0,0,0
206,0.48855,-0.396947,2.244275,-0.598755,0.148682,0.776978,0,0,0
209,0.259542,-0.305344,2.564885,-0.599487,0.154541,0.773804,0,0,0
212,0.229008,-0.10687,2.641221,-0.598999,0.153076,0.773071,0,0,0
215,0.21374,0.061069,2.931298,-0.5979,0.153076,0.774536,0,0,0
218,0.274809,0.259542,3.114504,-0.595581,0.153076,0.775757,0,0,0
221,0.137405,0.396947,3.236641,-0.595459,0.155151,0.770752,0,0,0
224,0.10687,0.80916,3.236641,-0.593506,0.155884,0.775146,0,0,0
227,0.061069,1.145038,3.572519,-0.589355,0.152344,0.76123,0,0,0
230,0.137405,1.221374,4.061069,-0.594116,0.152832,0.763428,0,0,0
233,0.137405,1.587786,4.152672,-0.59375,0.153442,0.771484,0,0,0
236,0.427481,2.061069,4.183206,-0.587769,0.145142,0.762573,0,0,0
239,0.274809,2.152672,4.442748,-0.589478,0.144531,0.764282,0,0,0
242,0.381679,2.351145,4.59542,-0.593994,0.140137,0.767822,0,0,0
245,0.244275,2.824427,4.427481,-0.594604,0.140869,0.780151,0,0,0
248,0.10687,2.854962,5.083969,-0.595093,0.131958,0.777954,0,0,0
251,0.59542,2.946565,4.885496,-0.599243,0.131958,0.783813,0,0,0
254,0.732824,3.129771,5.053435,-0.595459,0.128784,0.78479,0,0,0
1,1.29771,3.526718,4.931298,-0.593994,0.128296,0.783936,0,0,0
4,1.450382,3.374046,5.236641,-0.599487,0.124756,0.789185,0,0,0
7,1.740458,3.618321,4.442748,-0.603271,0.127441,0.789795,0,0,0
10,1.740458,3.145038,4.610687,-0.599121,0.129272,0.789185,0,0,0
13,1.358779,3.374046,3.984733,-0.606445,0.136841,0.793213,0,0,0
16,0.625954,3.450382,4.229008,-0.607056,0.141968,0.79541,0,0,0
19,0.793893,3.19084,4.610687,-0.607666,0.12915,0.792603,0,0,0
22,0.793893,3.832061,3.19084,-0.611694,0.141724,0.799072,0,0,0
25,0.610687,3.129771,4.458015,-0.603516,0.133667,0.799194,0,0,0
28,1.129771,3.389313,4.061069,-0.602539,0.136719,0.794678,0,0,0
31,1.251908,3.328244,3.648855,-0.609253,0.144409,0.802856,0,0,0
34,0.946565,3.480916,3.633588,-0.605103,0.146484,0.806274,0,0,0
37,0.671756,3.160305,4.183206,-0.599243,0.140747,0.793213,0,0,0
40,0.290076,3.312977,3.114504,-0.609009,0.151855,0.801758,0,0,0
43,-0.21374,2.977099,3.709924,-0.599854,0.147095,0.791626,0,0,0
46,-0.381679,2.931298,3.633588,-0.593994,0.148315,0.788452,0,0,0
49,-0.473282,2.946565,3.480916,-0.589722,0.143311,0.783813,0,0,0
52,-0.778626,2.793893,3.450382,-0.592773,0.140869,0.781616,0,0,0
55,-1.038168,2.656489,3.557252,-0.592407,0.139282,0.78479,0,0,0
58,-0.931298,2.824427,3.541985,-0.599731,0.136597,0.79126,0,0,0
61,-1.114504,2.931298,3.862595,-0.592896,0.129761,0.790039,0,0,0
64,-0.641221,2.977099,3.236641,-0.589478,0.126099,0.789185,0,0,0
67,-0.656489,2.916031,2.854962,-0.595703,0.129761,0.792114,0,0,0
70,-0.916031,2.778626,3.129771,-0.602173,0.124268,0.797852,0,0,0
73,-1.007634,2.748092,2.335878,-0.596436,0.120239,0.78772,0,0,0
76,-1.496183,2.473282,2.381679,-0.60144,0.12085,0.788208,0,0,0
79,-1.435115,2.641221,2.80916,-0.599243,0.107056,0.785767,0,0,0
82,-0.824427,2.961832,2.625954,-0.599121,0.106812,0.792236,0,0,0
85,-0.320611,3.282443,2.21374,-0.599976,0.108643,0.796509,0,0,0
88,0.122137,2.961832,2.564885,-0.60022,0.106445,0.795776,0,0,0
91,0.793893,3.068702,1.526718,-0.601807,0.11438,0.797363,0,0,0
94,0.503817,2.778626,1.526718,-0.604614,0.12146,0.796143,0,0,0
97,0.305344,2.778626,1.541985,-0.602783,0.122803,0.795166,0,0,0
100,0.198473,2.763359,1.633588,-0.600098,0.126221,0.797119,0,0,0
103,0.396947,2.748092,1.908397,-0.599487,0.129028,0.78894,0,0,0
106,0.641221,3.053435,1.877863,-0.598267,0.131714,0.789185,0,0,0
109,0.931298,3.022901,2.290076,-0.600098,0.135132,0.788452,0,0,0
112,1.40458,2.80916,2.580153,-0.603394,0.136963,0.782715,0,0,0
115,1.557252,3.389313,1.78626,-0.601196,0.143921,0.777222,0,0,0
118,1.29771,3.038168,2.427481,-0.607056,0.151001,0.775391,0,0,0
121,0.80916,3.389313,2.091603,-0.606689,0.152588,0.772217,0,0,0
124,0.137405,3.633588,2.030534,-0.608276,0.153198,0.768921,0,0,0
127,-0.564885,3.694656,2.366412,-0.613403,0.150513,0.770996,0,0,0
130,-0.671756,4.061069,2.519084,-0.610474,0.14917,0.77356,0,0,0
133,-0.671756,4.442748,2.59542,-0.609863,0.146973,0.773926,0,0,0
136,-0.534351,4.534351,2.839695,-0.610962,0.138672,0.776855,0,0,0
139,-0.320611,4.839695,2.763359,-0.614136,0.139648,0.785767,0,0,0
142,-0.473282,4.59542,2.59542,-0.620972,0.135742,0.792603,0,0,0
145,-0.580153,4.244275,2.641221,-0.625732,0.131958,0.805176,0,0,0
148,-0.625954,3.755725,2.442748,-0.627563,0.125122,0.809937,0,0,0
151,-0.641221,3.251908,2.21374,-0.634766,0.119629,0.820923,0,0,0
154,-0.610687,2.70229,2.167939,-0.641113,0.119019,0.830444,0,0,0
157,-0.519084,2.10687,2.10687,-0.644043,0.113037,0.833374,0,0,0
160,-0.21374,1.480916,2.045802,-0.643066,0.112549,0.835938,0,0,0
163,0.412214,0.732824,2.015267,-0.650146,0.115112,0.838989,0,0,0
166,0.763359,0.10687,1.816794,-0.650269,0.116699,0.836792,0,0,0
169,0.610687,-0.503817,1.725191,-0.64563,0.121338,0.831177,0,0,0
172,0.717557,-0.916031,1.450382,-0.646851,0.128784,0.829834,0,0,0
175,0.473282,-1.755725,1.389313,-0.643677,0.131836,0.826904,0,0,0
178,0.183206,-2.122137,1.251908,-0.640747,0.136719,0.81958,0,0,0
181,0.10687,-2.458015,1.267176,-0.639771,0.13855,0.810303,0,0,0
184,-0.198473,-2.763359,0.961832,-0.632202,0.145142,0.803711,0,0,0
187,-0.59542,-2.946565,1.068702,-0.631836,0.14563,0.793701,0,0,0
190,-0.763359,-3.068702,1.419847,-0.626831,0.145142,0.784668,0,0,0
193,-0.977099,-2.70229,0.916031,-0.623901,0.154541,0.780029,0,0,0
196,-1.221374,-2.549618,1.541985,-0.617188,0.150391,0.771851,0,0,0
199,-1.160305,-2.59542,1.740458,-0.615845,0.146362,0.764771,0,0,0
202,-1.175573,-2.030534,1.465649,-0.615601,0.147583,0.762573,0,0,0
205,-1.572519,-1.664122,1.694656,-0.606323,0.147339,0.76062,0,0,0
208,-1.572519,-1.465649,2.030534,-0.603638,0.144897,0.755737,0,0,0
211,-1.725191,-0.824427,1.618321,-0.607056,0.145142,0.756226,0,0,0
214,-2.076336,-0.534351,1.923664,-0.60791,0.140015,0.752197,0,0,0
217,-2.351145,0.091603,1.694656,-0.603882,0.137329,0.751465,0,0,0
220,-2.21374,0.48855,2.030534,-0.605469,0.128296,0.753296,0,0,0
223,-1.954198,0.885496,1.679389,-0.605591,0.127686,0.756714,0,0,0
226,-1.923664,1.068702,1.954198,-0.610107,0.119263,0.761719,0,0,0
229,-1.694656,1.496183,1.557252,-0.608398,0.121216,0.769531,0,0,0
232,-1.679389,1.862595,1.587786,-0.61084,0.12146,0.775635,0,0,0
235,-1.480916,1.908397,1.389313,-0.615112,0.116455,0.776001,0,0,0
238,-1.389313,1.89313,1.374046,-0.615967,0.117798,0.78418,0,0,0
241,-1.312977,2.183206,1.068702,-0.617798,0.113403,0.792236,0,0,0
244,-1.328244,1.938931,1.083969,-0.619385,0.114258,0.793457,0,0,0
247,-1.389313,1.862595,0.59542,-0.619995,0.117798,0.800903,0,0,0
250,-1.435115,1.435115,0.396947,-0.623901,0.117554,0.801147,0,0,0
253,-1.358779,0.885496,0.152672,-0.627686,0.120361,0.804688,0,0,0
0,-1.572519,0.580153,-0.091603,-0.628906,0.121826,0.808105,0,0,0
3,-1.89313,0.259542,-0.290076,-0.628296,0.12439,0.80603,0,0,0
6,-2.137405,-0.152672,-0.305344,-0.633545,0.123657,0.803955,0,0,0
9,-2.351145,-0.473282,-0.366412,-0.631958,0.123779,0.807251,0,0,0
12,-2.442748,-0.519084,-0.458015,-0.634277,0.122559,0.807373,0,0,0
15,-2.412214,-0.916031,-0.183206,-0.633057,0.120239,0.806396,0,0,0
18,-2.122137,-0.992366,-0.503817,-0.632935,0.123047,0.801758,0,0,0
21,-2.10687,-1.160305,-0.335878,-0.632446,0.119873,0.803345,0,0,0
24,-1.877863,-1.419847,-0.381679,-0.634399,0.121338,0.803833,0,0,0
27,-1.984733,-1.618321,-0.396947,-0.628662,0.120483,0.798584,0,0,0
30,-2.076336,-1.694656,-0.274809,-0.630615,0.124023,0.794922,0,0,0
33,-2.10687,-1.877863,-0.290076,-0.624512,0.123901,0.788574,0,0,0
36,-2.183206,-1.694656,-0.366412,-0.620483,0.123535,0.790649,0,0,0
39,-2.259542,-1.923664,0.015267,-0.62207,0.122803,0.783569,0,0,0
42,-1.984733,-1.694656,0.030534,-0.621826,0.123657,0.778687,0,0,0
45,-1.938931,-1.572519,-0.091603,-0.617676,0.122803,0.776611,0,0,0
48,-1.877863,-1.358779,-0.061069,-0.616577,0.121948,0.772461,0,0,0
51,-1.984733,-1.206107,0.152672,-0.616455,0.123291,0.771851,0,0,0
54,-1.908397,-0.946565,0.198473,-0.61377,0.123657,0.770142,0,0,0
57,-1.78626,-0.59542,0.381679,-0.614746,0.121826,0.768433,0,0,0
60,-1.603053,-0.274809,0.458015,-0.613892,0.121704,0.770752,0,0,0
63,-1.435115,-0.183206,0.610687,-0.615356,0.116699,0.773193,0,0,0
66,-1.312977,-0.122137,0.778626,-0.616699,0.11792,0.776855,0,0,0
69,-1.175573,-0.061069,0.793893,-0.615845,0.114014,0.786621,0,0,0
72,-0.900763,-0.10687,0.748092,-0.622925,0.112671,0.790161,0,0,0
75,-0.70229,-0.21374,0.854962,-0.618774,0.109009,0.794678,0,0,0
78,-0.473282,-0.442748,0.778626,-0.621826,0.108521,0.795654,0,0,0
81,-0.305344,-0.687023,0.763359,-0.625732,0.109253,0.799927,0,0,0
84,-0.21374,-0.961832,0.503817,-0.627319,0.107544,0.799561,0,0,0
87,-0.122137,-1.160305,0.656489,-0.624878,0.109131,0.802979,0,0,0
90,-0.061069,-1.40458,0.610687,-0.626343,0.11084,0.804199,0,0,0
93,0.122137,-1.572519,0.458015,-0.629395,0.107666,0.803223,0,0,0
96,0.152672,-1.923664,0.59542,-0.626465,0.110718,0.802002,0,0,0
99,0.412214,-2.122137,0.519084,-0.622437,0.114014,0.800659,0,0,0
102,0.396947,-2.351145,0.503817,-0.619385,0.116333,0.800903,0,0,0
105,0.396947,-2.732824,0.580153,-0.621216,0.118164,0.79541,0,0,0
108,0.381679,-2.839695,0.503817,-0.615601,0.122925,0.791382,0,0,0
111,0.290076,-3.022901,0.656489,-0.612427,0.123901,0.78772,0,0,0
114,0.274809,-2.946565,0.503817,-0.608276,0.123779,0.781738,0,0,0
117,0.335878,-2.961832,0.549618,-0.604492,0.130493,0.778809,0,0,0
120,0.244275,-2.916031,0.717557,-0.602417,0.12915,0.775391,0,0,0
123,0.198473,-2.778626,0.70229,-0.601562,0.128418,0.769775,0,0,0
126,0.183206,-2.656489,0.854962,-0.598511,0.127319,0.766357,0,0,0
129,0.259542,-2.320611,0.946565,-0.598755,0.123413,0.764648,0,0,0
132,0.320611,-2,0.80916,-0.596436,0.126831,0.758057,0,0,0
135,0.229008,-1.938931,1.007634,-0.591553,0.124878,0.763794,0,0,0
138,0.061069,-1.557252,1.007634,-0.593262,0.121704,0.760986,0,0,0
141,0.045802,-1.358779,1.053435,-0.595215,0.119019,0.763428,0,0,0
144,0.290076,-1.267176,0.992366,-0.594849,0.119019,0.763184,0,0,0
147,0.259542,-1.053435,1.007634,-0.595459,0.119995,0.767944,0,0,0
150,0.564885,-1.053435,1.007634,-0.592407,0.117432,0.774902,0,0,0
153,0.473282,-1.175573,0.961832,-0.59314,0.118652,0.780151,0,0,0
156,0.381679,-1.541985,0.80916,-0.595215,0.118896,0.782959,0,0,0
159,0.519084,-1.755725,0.656489,-0.596558,0.118164,0.787109,0,0,0
162,0.59542,-1.938931,0.625954,-0.595093,0.121826,0.785522,0,0,0
165,0.259542,-2.122137,0.70229,-0.597534,0.118896,0.783569,0,0,0
168,0.244275,-2.137405,0.534351,-0.59436,0.122314,0.782837,0,0,0
171,0.137405,-2.335878,0.625954,-0.59668,0.123169,0.780884,0,0,0
174,0.229008,-2.381679,0.59542,-0.597534,0.122681,0.779541,0,0,0
177,0.290076,-2.351145,0.641221,-0.59729,0.124878,0.775513,0,0,0
180,0.244275,-2.366412,0.748092,-0.596313,0.127563,0.772217,0,0,0
183,0.519084,-2.21374,0.732824,-0.596191,0.12793,0.770508,0,0,0
186,0.671756,-1.908397,0.854962,-0.595703,0.127686,0.770264,0,0,0
189,0.564885,-1.740458,0.916031,-0.595703,0.129272,0.769897,0,0,0
192,0.656489,-1.618321,1.022901,-0.594971,0.129395,0.773193,0,0,0
195,0.534351,-1.51145,1.221374,-0.593506,0.127808,0.771606,0,0,0
198,0.687023,-1.358779,1.267176,-0.596191,0.129272,0.775146,0,0,0
201,0.717557,-1.251908,1.267176,-0.597778,0.12915,0.776733,0,0,0
204,0.778626,-1.206107,1.465649,-0.600098,0.123901,0.776001,0,0,0
207,0.992366,-1.129771,1.496183,-0.601807,0.126587,0.781738,0,0,0
210,1.099237,-1.175573,1.389313,-0.602417,0.121826,0.783081,0,0,0
213,1.068702,-1.129771,1.557252,-0.603271,0.122314,0.784668,0,0,0
216,1.114504,-1.221374,1.450382,-0.605713,0.119873,0.787231,0,0,0
219,1.145038,-1.328244,1.465649,-0.604858,0.122925,0.790894,0,0,0
222,1.29771,-1.312977,1.496183,-0.609985,0.123169,0.794556,0,0,0
225,1.435115,-1.40458,1.358779,-0.60791,0.120972,0.793579,0,0,0
228,1.435115,-1.541985,1.374046,-0.608154,0.118774,0.796387,0,0,0
231,1.557252,-1.694656,1.29771,-0.607544,0.12085,0.796143,0,0,0
234,1.725191,-1.89313,1.29771,-0.606445,0.121826,0.793335,0,0,0
237,1.740458,-2.015267,1.221374,-0.608154,0.121704,0.798706,0,0,0
240,1.78626,-2.152672,1.038168,-0.607056,0.128418,0.796387,0,0,0
243,1.694656,-2.366412,1.145038,-0.603516,0.129639,0.7948,0,0,0
246,1.862595,-2.442748,1.099237,-0.605225,0.128662,0.793335,0,0,0
249,1.709924,-2.549618,0.931298,-0.601685,0.132568,0.78894,0,0,0
252,1.801527,-2.641221,0.977099,-0.599243,0.135254,0.782715,0,0,0
255,1.770992,-2.549618,0.977099,-0.598022,0.136963,0.777832,0,0,0
2,1.740458,-2.48855,1.053435,-0.596802,0.134521,0.775635,0,0,0
5,1.694656,-2.320611,1.099237,-0.593262,0.136963,0.771118,0,0,0
8,1.755725,-2.061069,1.114504,-0.592529,0.136353,0.766724,0,0,0
11,1.740458,-1.908397,1.221374,-0.592651,0.140869,0.763062,0,0,0
14,1.847328,-1.587786,1.221374,-0.586548,0.140991,0.759644,0,0,0
17,1.694656,-1.29771,1.374046,-0.585449,0.140381,0.764038,0,0,0
20,1.679389,-1.068702,1.435115,-0.586304,0.141846,0.764404,0,0,0
23,1.664122,-0.854962,1.419847,-0.587402,0.140869,0.766357,0,0,0
26,1.541985,-0.900763,1.572519,-0.589722,0.140625,0.769409,0,0,0
29,1.694656,-0.778626,1.51145,-0.585815,0.138184,0.771851,0,0,0
32,1.89313,-0.625954,1.557252,-0.589722,0.140015,0.773926,0,0,0
35,1.923664,-0.534351,1.618321,-0.595093,0.137451,0.776123,0,0,0
38,1.770992,-0.458015,1.618321,-0.595093,0.136963,0.778809,0,0,0
41,1.832061,-0.351145,1.618321,-0.595581,0.140747,0.780762,0,0,0
44,1.770992,-0.351145,1.664122,-0.599976,0.141602,0.779053,0,0,0
47,1.908397,-0.244275,1.709924,-0.59729,0.141602,0.780396,0,0,0
50,1.862595,-0.167939,1.664122,-0.596802,0.143677,0.779907,0,0,0
53,1.709924,-0.10687,1.740458,-0.60083,0.143066,0.781616,0,0,0
56,1.664122,-0.183206,1.938931,-0.598755,0.145386,0.783325,0,0,0
59,1.725191,0.10687,2.015267,-0.597412,0.145996,0.782104,0,0,0
62,1.725191,0.030534,2.061069,-0.600952,0.144531,0.782349,0,0,0
65,1.664122,-0.015267,2.198473,-0.598633,0.14502,0.784424,0,0,0
68,1.847328,0,2.366412,-0.596802,0.145752,0.778687,0,0,0
71,2.045802,0.122137,2.061069,-0.600708,0.147705,0.779175,0,0,0
74,1.969466,0.229008,2.412214,-0.601685,0.148804,0.781128,0,0,0
77,2,0.305344,2.748092,-0.598755,0.145264,0.772583,0,0,0
80,1.923664,0.59542,2.717557,-0.602173,0.147217,0.774292,0,0,0
83,2,0.763359,2.931298,-0.599731,0.144165,0.773926,0,0,0
86,1.877863,1.053435,3.068702,-0.60083,0.14624,0.779053,0,0,0
89,1.984733,1.022901,3.19084,-0.602539,0.141113,0.779053,0,0,0
92,2.198473,1.145038,3.389313,-0.598755,0.138672,0.784668,0,0,0
95,2.167939,1.282443,3.129771,-0.603027,0.141479,0.785278,0,0,0
98,2.045802,0.961832,3.282443,-0.606079,0.136475,0.791992,0,0,0
101,2.198473,1.343511,3.236641,-0.599976,0.138794,0.798096,0,0,0
104,2.076336,1.053435,3.450382,-0.601807,0.134155,0.801758,0,0,0
107,2.381679,1.206107,3.129771,-0.594971,0.133179,0.806641,0,0,0
110,2.458015,0.580153,3.236641,-0.597656,0.131104,0.803101,0,0,0
113,2.412214,0.503817,2.763359,-0.594482,0.129639,0.806396,0,0,0
116,2.320611,-0.320611,2.854962,-0.600952,0.130493,0.807251,0,0,0
119,2.229008,-0.549618,2.305344,-0.587402,0.133179,0.802856,0,0,0
122,2,-0.854962,2.381679,-0.590332,0.123901,0.799072,0,0,0
125,1.725191,-0.839695,1.862595,-0.587769,0.124756,0.793945,0,0,0
128,1.740458,-1.374046,1.557252,-0.591553,0.126587,0.785645,0,0,0
131,1.633588,-0.961832,1.083969,-0.581421,0.117798,0.780396,0,0,0
134,1.480916,-1.007634,0.778626,-0.58252,0.12146,0.766968,0,0,0
137,1.664122,-0.885496,0.641221,-0.58252,0.119629,0.760986,0,0,0
140,1.496183,-0.305344,0.076336,-0.580811,0.123291,0.761719,0,0,0
143,1.633588,-0.229008,0.351145,-0.58606,0.122437,0.757812,0,0,0
146,1.877863,0.061069,0.198473,-0.581909,0.122559,0.755493,0,0,0
149,2.198473,0.59542,-0.564885,-0.582153,0.127441,0.752808,0,0,0
152,2.122137,1.022901,-0.717557,-0.585327,0.130005,0.753418,0,0,0
155,2.045802,1.435115,-0.748092,-0.591064,0.131104,0.747681,0,0,0
158,2.290076,1.694656,-0.70229,-0.595337,0.13269,0.745972,0,0,0
161,2.229008,2.351145,-1.267176,-0.597168,0.142334,0.745361,0,0,0
164,2.335878,2.824427,-1.29771,-0.599854,0.14209,0.747314,0,0,0
167,2.259542,3.389313,-1.496183,-0.611206,0.145752,0.744141,0,0,0
170,2.412214,3.755725,-1.435115,-0.61792,0.155273,0.753784,0,0,0
173,2.396947,4.152672,-1.358779,-0.623169,0.163208,0.759033,0,0,0
176,2.473282,4.335878,-1.358779,-0.630005,0.169556,0.761719,0,0,0
179,2.10687,4.80916,-1.343511,-0.636108,0.174438,0.769165,0,0,0
182,1.877863,4.687023,-0.763359,-0.647339,0.175049,0.776855,0,0,0
185,1.801527,4.900763,-0.442748,-0.652588,0.184082,0.786133,0,0,0
188,2.015267,4.824427,-0.152672,-0.658813,0.184326,0.790771,0,0,0
191,1.740458,4.717557,0.183206,-0.66687,0.187988,0.798218,0,0,0
194,1.419847,4.351145,0.549618,-0.672119,0.189941,0.80481,0,0,0
197,1.221374,4.091603,0.778626,-0.67688,0.196655,0.808105,0,0,0
200,0.824427,3.801527,1.19084,-0.677734,0.196777,0.812744,0,0,0
203,0.48855,3.419847,1.725191,-0.685059,0.192749,0.817017,0,0,0
206,0.244275,3.099237,2.366412,-0.689575,0.192139,0.823242,0,0,0
209,0.183206,2.610687,2.793893,-0.694214,0.18689,0.82666,0,0,0
212,0.015267,2.167939,3.374046,-0.692627,0.181396,0.834351,0,0,0
215,-0.10687,1.587786,3.816794,-0.690796,0.177002,0.833008,0,0,0
218,0.21374,1.068702,4.274809,-0.69104,0.174683,0.838135,0,0,0
221,0.10687,0.625954,4.763359,-0.687988,0.170166,0.840088,0,0,0
224,0.305344,0.030534,5.053435,-0.683594,0.170166,0.834839,0,0,0
227,0.167939,-0.381679,5.29771,-0.679932,0.165527,0.831909,0,0,0
230,0.274809,-0.778626,5.633588,-0.674683,0.160645,0.828735,0,0,0
233,0.320611,-1.419847,5.78626,-0.669922,0.162476,0.824097,0,0,0
236,0.21374,-1.709924,5.89313,-0.663696,0.158813,0.815918,0,0,0
239,0.198473,-1.923664,6.137405,-0.660767,0.160645,0.806763,0,0,0
242,0.21374,-2,6.335878,-0.65332,0.164429,0.794678,0,0,0
245,0.458015,-1.938931,6.473282,-0.643799,0.162842,0.788452,0,0,0
248,0.290076,-1.664122,6.717557,-0.637695,0.161987,0.782104,0,0,0
251,0.366412,-1.496183,6.931298,-0.635254,0.160522,0.77832,0,0,0
254,0.21374,-1.221374,7.007634,-0.626831,0.160889,0.772461,0,0,0
1,0.274809,-0.839695,7.19084,-0.628052,0.159546,0.766357,0,0,0
4,0.061069,-0.549618,7.40458,-0.626221,0.156616,0.765747,0,0,0
7,0.091603,-0.183206,7.435115,-0.620483,0.15271,0.762451,0,0,0
10,-0.198473,-0.091603,7.29771,-0.619629,0.152344,0.764282,0,0,0
13,-0.503817,0.473282,7.221374,-0.614258,0.147095,0.765137,0,0,0
16,-0.839695,0.732824,7.068702,-0.615479,0.146118,0.764893,0,0,0
19,-1.221374,1.053435,6.900763,-0.616699,0.139526,0.768921,0,0,0
22,-1.374046,1.206107,6.549618,-0.620361,0.137695,0.775024,0,0,0
25,-2.10687,1.221374,6.198473,-0.616455,0.131714,0.77771,0,0,0
28,-2.305344,1.29771,5.801527,-0.622925,0.129883,0.782715,0,0,0
31,-2.442748,1.251908,5.51145,-0.620728,0.124756,0.790039,0,0,0
34,-2.656489,1.114504,4.992366,-0.62561,0.12207,0.790649,0,0,0
37,-2.900763,1.007634,4.687023,-0.627563,0.123047,0.799072,0,0,0
40,-3.068702,0.839695,4.137405,-0.629272,0.119873,0.799927,0,0,0
43,-3.435115,0.839695,3.847328,-0.628174,0.118042,0.803711,0,0,0
46,-3.557252,0.687023,3.29771,-0.631104,0.115356,0.805786,0,0,0
49,-3.526718,0.564885,2.916031,-0.63147,0.114502,0.805664,0,0,0
52,-3.618321,0.305344,2.580153,-0.631958,0.114746,0.808838,0,0,0
55,-3.755725,0.167939,2.290076,-0.629883,0.113403,0.810059,0,0,0
58,-3.832061,-0.076336,2.045802,-0.632202,0.109863,0.812744,0,0,0
61,-3.847328,-0.183206,1.725191,-0.630249,0.11377,0.815918,0,0,0
64,-3.89313,-0.473282,1.557252,-0.635864,0.113647,0.813477,0,0,0
67,-3.816794,-0.625954,1.251908,-0.635254,0.113403,0.814209,0,0,0
70,-3.832061,-0.885496,1.343511,-0.630981,0.110962,0.813232,0,0,0
73,-3.877863,-1.068702,1.114504,-0.629639,0.113403,0.816772,0,0,0
76,-3.877863,-1.160305,0.992366,-0.628296,0.111572,0.812134,0,0,0
79,-3.877863,-1.374046,0.992366,-0.627319,0.113281,0.815063,0,0,0
82,-3.847328,-1.51145,0.80916,-0.621094,0.113647,0.813599,0,0,0
85,-4.076336,-1.496183,0.900763,-0.620239,0.111572,0.811035,0,0,0
88,-3.862595,-1.694656,0.854962,-0.616333,0.111938,0.810303,0,0,0
91,-3.877863,-1.755725,0.732824,-0.616699,0.111694,0.807495,0,0,0
94,-4.030534,-1.816794,0.748092,-0.61084,0.113403,0.804443,0,0,0
97,-3.862595,-1.847328,0.854962,-0.607178,0.110962,0.804199,0,0,0
100,-3.862595,-1.801527,0.885496,-0.602539,0.110107,0.800415,0,0,0
103,-3.816794,-1.801527,1.007634,-0.602661,0.109253,0.798828,0,0,0
106,-3.694656,-1.740458,0.961832,-0.597656,0.1073,0.795898,0,0,0
109,-3.648855,-1.618321,0.931298,-0.594727,0.105225,0.793579,0,0,0
112,-3.526718,-1.480916,1.038168,-0.595215,0.10376,0.792358,0,0,0
115,-3.312977,-1.389313,0.977099,-0.588501,0.101807,0.792847,0,0,0
118,-3.450382,-1.251908,0.839695,-0.588867,0.099365,0.791138,0,0,0
121,-3.114504,-0.992366,0.824427,-0.588989,0.098389,0.787842,0,0,0
124,-3.160305,-0.80916,0.732824,-0.584839,0.095093,0.786621,0,0,0
127,-2.916031,-0.687023,0.687023,-0.584595,0.09436,0.786011,0,0,0
130,-2.564885,-0.503817,0.641221,-0.581421,0.09375,0.787476,0,0,0
133,-2.412214,-0.229008,0.549618,-0.582153,0.092163,0.785767,0,0,0
136,-2.045802,-0.259542,0.396947,-0.582764,0.092651,0.788208,0,0,0
139,-1.984733,-0.10687,0.244275,-0.582886,0.093018,0.785889,0,0,0
142,-1.862595,-0.076336,0.137405,-0.587524,0.094604,0.786011,0,0,0
145,-1.618321,0.076336,-0.122137,-0.591064,0.096802,0.791992,0,0,0
148,-1.572519,0,-0.21374,-0.591064,0.096191,0.792358,0,0,0
151,-1.435115,0.061069,-0.580153,-0.591919,0.096924,0.795654,0,0,0
154,-1.374046,-0.045802,-0.70229,-0.592285,0.096313,0.797485,0,0,0
157,-1.358779,-0.122137,-0.931298,-0.598511,0.101807,0.79895,0,0,0
160,-1.145038,-0.290076,-1.068702,-0.597656,0.104004,0.803467,0,0,0
163,-1.419847,-0.458015,-1.465649,-0.604736,0.107178,0.804565,0,0,0
166,-1.40458,-0.641221,-1.572519,-0.602295,0.112061,0.80542,0,0,0
169,-1.770992,-0.931298,-1.770992,-0.604126,0.110474,0.80542,0,0,0
172,-1.954198,-1.099237,-2.045802,-0.604492,0.112671,0.80481,0,0,0
175,-1.908397,-1.267176,-2.167939,-0.606445,0.114502,0.803345,0,0,0
178,-2.274809,-1.51145,-2.10687,-0.605225,0.11377,0.799316,0,0,0
181,-2.366412,-1.526718,-2.503817,-0.602539,0.11731,0.795654,0,0,0
184,-2.564885,-1.740458,-2.427481,-0.601318,0.116089,0.795776,0,0,0
187,-2.625954,-1.832061,-2.732824,-0.600098,0.120361,0.795532,0,0,0
190,-2.854962,-1.816794,-2.793893,-0.598633,0.120483,0.790283,0,0,0
193,-3.114504,-1.847328,-2.748092,-0.59668,0.12207,0.787354,0,0,0
196,-3.206107,-1.801527,-2.885496,-0.594116,0.11731,0.78418,0,0,0
199,-3.358779,-1.832061,-2.992366,-0.59729,0.119385,0.781982,0,0,0
202,-3.419847,-1.725191,-3.175573,-0.595215,0.117188,0.777832,0,0,0
205,-3.374046,-1.679389,-3.221374,-0.595947,0.115723,0.775879,0,0,0
208,-3.40458,-1.51145,-3.389313,-0.592285,0.11731,0.779541,0,0,0
211,-3.267176,-1.572519,-3.419847,-0.591064,0.117676,0.78064,0,0,0
214,-3.419847,-1.664122,-3.557252,-0.596802,0.117798,0.778564,0,0,0
217,-3.389313,-1.450382,-3.725191,-0.592041,0.117798,0.778442,0,0,0
220,-3.358779,-1.450382,-3.847328,-0.597046,0.116333,0.777344,0,0,0
223,-3.435115,-1.40458,-3.923664,-0.596436,0.120605,0.774048,0,0,0
226,-3.374046,-1.358779,-4.030534,-0.59668,0.119751,0.775269,0,0,0
229,-3.267176,-1.358779,-4.091603,-0.592773,0.117065,0.776855,0,0,0
232,-3.236641,-1.267176,-4.198473,-0.596313,0.125732,0.776245,0,0,0
235,-3.068702,-0.946565,-4.183206,-0.598877,0.126343,0.773315,0,0,0
238,-3.083969,-1.053435,-4.244275,-0.599976,0.129517,0.771851,0,0,0
241,-3.114504,-0.80916,-4.335878,-0.595459,0.128296,0.770996,0,0,0
244,-3.358779,-0.687023,-4.290076,-0.591675,0.12915,0.77002,0,0,0
247,-3.541985,-0.717557,-4.320611,-0.592041,0.130981,0.768188,0,0,0
250,-3.587786,-0.671756,-4.198473,-0.595703,0.130981,0.768311,0,0,0
253,-3.664122,-0.549618,-4.335878,-0.590576,0.133179,0.763306,0,0,0
0,-3.679389,-0.351145,-4.335878,-0.592896,0.135986,0.759888,0,0,0
3,-3.603053,-0.122137,-4.351145,-0.589966,0.132935,0.755981,0,0,0
6,-3.801527,0.137405,-4.366412,-0.593018,0.132324,0.756714,0,0,0
9,-3.923664,0.442748,-4.290076,-0.596924,0.130981,0.75708,0,0,0
12,-3.923664,0.778626,-4.152672,-0.596191,0.126953,0.759155,0,0,0
15,-3.725191,0.946565,-4.10687,-0.598389,0.124023,0.767822,0,0,0
18,-3.572519,0.992366,-4.061069,-0.602295,0.119141,0.770874,0,0,0
21,-3.419847,1.007634,-3.984733,-0.606689,0.117676,0.776123,0,0,0
24,-3.022901,1.083969,-4.122137,-0.611084,0.115845,0.782349,0,0,0
27,-2.839695,0.839695,-4.061069,-0.613647,0.117065,0.789307,0,0,0
30,-2.396947,0.59542,-3.984733,-0.614746,0.11499,0.79834,0,0,0
33,-2.412214,0.259542,-4.061069,-0.618774,0.120605,0.798584,0,0,0
36,-2.183206,-0.045802,-3.877863,-0.621704,0.120728,0.802246,0,0,0
39,-1.725191,-0.366412,-4.015267,-0.626221,0.126953,0.805664,0,0,0
42,-1.78626,-0.824427,-3.877863,-0.626953,0.127197,0.803955,0,0,0
45,-1.862595,-1.145038,-3.725191,-0.629272,0.128174,0.801758,0,0,0
48,-1.801527,-1.328244,-3.572519,-0.631104,0.133057,0.797485,0,0,0
51,-1.618321,-1.557252,-3.526718,-0.625977,0.135254,0.796753,0,0,0
54,-1.847328,-1.725191,-3.435115,-0.625366,0.136841,0.793091,0,0,0
57,-1.664122,-1.862595,-3.312977,-0.628052,0.140259,0.789429,0,0,0
60,-1.770992,-2.167939,-3.038168,-0.622559,0.140991,0.787476,0,0,0
63,-2.21374,-2.244275,-2.977099,-0.620972,0.141724,0.782227,0,0,0
66,-2.030534,-2.290076,-2.824427,-0.620728,0.13855,0.778809,0,0,0
69,-2.137405,-2.274809,-2.717557,-0.618652,0.135254,0.774658,0,0,0
72,-2.442748,-2.244275,-2.732824,-0.616455,0.133911,0.773926,0,0,0
75,-2.625954,-2.167939,-2.763359,-0.619995,0.13623,0.76709,0,0,0
78,-2.625954,-2.030534,-2.641221,-0.612427,0.134521,0.769043,0,0,0
81,-2.625954,-2.045802,-2.519084,-0.611816,0.125366,0.763916,0,0,0
84,-2.59542,-2,-2.59542,-0.609985,0.129517,0.761963,0,0,0
87,-2.519084,-1.862595,-2.351145,-0.612427,0.124512,0.765137,0,0,0
90,-2.427481,-1.648855,-2.442748,-0.612305,0.123535,0.762817,0,0,0
93,-2.137405,-1.618321,-2.442748,-0.611816,0.123779,0.762573,0,0,0
96,-2.198473,-1.358779,-2.320611,-0.610718,0.123047,0.76123,0,0,0
99,-2.015267,-1.374046,-2.305344,-0.608765,0.124268,0.763672,0,0,0
102,-1.709924,-1.236641,-2.351145,-0.609619,0.121582,0.769043,0,0,0
105,-1.740458,-1.236641,-2.381679,-0.612183,0.119751,0.769775,0,0,0
108,-1.526718,-1.022901,-2.564885,-0.612183,0.118896,0.767578,0,0,0
111,-1.343511,-1.19084,-2.458015,-0.608521,0.123535,0.771606,0,0,0
114,-1.374046,-1.022901,-2.412214,-0.610718,0.124756,0.773071,0,0,0
117,-1.374046,-1.038168,-2.305344,-0.612305,0.122925,0.775269,0,0,0
120,-1.236641,-1.175573,-2.396947,-0.613525,0.125,0.780273,0,0,0
123,-1.206107,-1.114504,-2.351145,-0.611572,0.124512,0.777832,0,0,0
126,-1.343511,-1.129771,-2.305344,-0.61853,0.123413,0.777588,0,0,0
129,-1.129771,-1.221374,-2.198473,-0.614258,0.124146,0.779541,0,0,0
132,-0.946565,-1.175573,-2.152672,-0.611084,0.119873,0.779663,0,0,0
135,-0.839695,-1.40458,-2.137405,-0.614502,0.123169,0.779785,0,0,0
138,-0.717557,-1.51145,-2.167939,-0.613159,0.126099,0.779907,0,0,0
141,-0.717557,-1.633588,-1.969466,-0.61145,0.126587,0.779175,0,0,0
144,-0.351145,-1.709924,-1.969466,-0.609375,0.125366,0.77771,0,0,0
147,-0.458015,-1.923664,-1.862595,-0.605103,0.121582,0.773682,0,0,0
150,-0.183206,-1.923664,-1.770992,-0.604614,0.124512,0.772339,0,0,0
153,-0.045802,-1.89313,-1.801527,-0.60498,0.123291,0.767944,0,0,0
156,-0.137405,-1.89313,-1.694656,-0.603882,0.124756,0.770142,0,0,0
159,-0.045802,-1.89313,-1.664122,-0.600098,0.125854,0.7677,0,0,0
162,0.015267,-1.938931,-1.51145,-0.606934,0.12207,0.770508,0,0,0
165,0.274809,-1.89313,-1.587786,-0.602417,0.121948,0.768799,0,0,0
168,0.381679,-1.908397,-1.633588,-0.60144,0.123535,0.769531,0,0,0
171,0.335878,-1.89313,-1.603053,-0.601074,0.119995,0.771729,0,0,0
174,0.625954,-1.908397,-1.679389,-0.599243,0.123413,0.769897,0,0,0
177,0.641221,-1.969466,-1.725191,-0.598145,0.127441,0.770142,0,0,0
180,0.885496,-2.076336,-1.770992,-0.598267,0.126831,0.766602,0,0,0
183,0.839695,-1.89313,-1.740458,-0.598389,0.131348,0.762939,0,0,0
186,0.793893,-1.801527,-1.603053,-0.600098,0.132324,0.760254,0,0,0
189,0.580153,-1.832061,-1.694656,-0.60144,0.131714,0.758057,0,0,0
192,0.687023,-1.603053,-1.526718,-0.597412,0.12854,0.758789,0,0,0
195,0.641221,-1.374046,-1.51145,-0.597168,0.132446,0.755493,0,0,0
198,0.671756,-1.175573,-1.496183,-0.599609,0.128418,0.759155,0,0,0
201,0.793893,-1.053435,-1.419847,-0.600342,0.127441,0.760254,0,0,0
204,0.824427,-1.022901,-1.435115,-0.601929,0.128418,0.766113,0,0,0
207,0.870229,-0.977099,-1.312977,-0.602661,0.127563,0.764526,0,0,0
210,0.854962,-1.068702,-1.496183,-0.601562,0.128662,0.764038,0,0,0
213,0.992366,-1.053435,-1.450382,-0.601807,0.12561,0.773682,0,0,0
216,0.931298,-1.145038,-1.541985,-0.60144,0.12439,0.770142,0,0,0
219,0.80916,-1.145038,-1.480916,-0.600464,0.12439,0.772339,0,0,0
222,0.80916,-1.282443,-1.358779,-0.601196,0.12207,0.771484,0,0,0
225,0.778626,-1.282443,-1.51145,-0.599731,0.122437,0.773804,0,0,0
228,0.900763,-1.358779,-1.496183,-0.598145,0.124268,0.769165,0,0,0
231,0.854962,-1.29771,-1.541985,-0.5979,0.12207,0.767944,0,0,0
234,0.946565,-1.312977,-1.480916,-0.600098,0.123291,0.768311,0,0,0
237,1.022901,-1.145038,-1.618321,-0.599609,0.123413,0.767334,0,0,0
240,0.931298,-1.129771,-1.465649,-0.59668,0.120239,0.764893,0,0,0
243,1.129771,-0.977099,-1.435115,-0.595215,0.123657,0.767822,0,0,0
246,1.221374,-0.885496,-1.343511,-0.594849,0.123779,0.765869,0,0,0
249,1.099237,-0.824427,-1.435115,-0.594727,0.125122,0.767212,0,0,0
252,1.343511,-0.854962,-1.312977,-0.594971,0.123535,0.767212,0,0,0
255,1.328244,-0.564885,-1.557252,-0.590698,0.126831,0.764526,0,0,0
2,1.374046,-0.458015,-1.40458,-0.592651,0.123657,0.763916,0,0,0
5,1.267176,-0.48855,-1.19084,-0.587158,0.12439,0.762939,0,0,0
8,1.465649,-0.290076,-1.40458,-0.590088,0.128174,0.761597,0,0,0
11,1.145038,-0.122137,-1.251908,-0.588745,0.128662,0.76062,0,0,0
14,1.343511,-0.076336,-1.068702,-0.589966,0.127686,0.76001,0,0,0
17,1.312977,0.229008,-1.099237,-0.593994,0.12854,0.763062,0,0,0
20,1.465649,0.458015,-1.114504,-0.589111,0.126343,0.764282,0,0,0
23,1.221374,0.671756,-1.160305,-0.590454,0.129883,0.766235,0,0,0
26,1.358779,0.748092,-1.145038,-0.58667,0.125244,0.760742,0,0,0
29,1.175573,0.900763,-1.19084,-0.590942,0.127075,0.768555,0,0,0
32,1.175573,0.732824,-1.282443,-0.593018,0.12439,0.773193,0,0,0
35,0.900763,0.610687,-1.328244,-0.594238,0.123901,0.772339,0,0,0
38,0.763359,0.824427,-1.633588,-0.592651,0.129883,0.779053,0,0,0
41,0.534351,0.580153,-1.496183,-0.596069,0.122314,0.779541,0,0,0
44,0.778626,0.656489,-1.801527,-0.59314,0.123291,0.783081,0,0,0
47,0.580153,0.793893,-1.832061,-0.59021,0.120728,0.778076,0,0,0
50,0.793893,0.290076,-1.450382,-0.596802,0.11792,0.775146,0,0,0
53,0.961832,0.076336,-1.725191,-0.600586,0.116577,0.786499,0,0,0
56,0.885496,0.641221,-2.290076,-0.597168,0.123779,0.788208,0,0,0
59,0.748092,0.290076,-2.183206,-0.590088,0.122192,0.774048,0,0,0
62,0.641221,0.274809,-2.748092,-0.592773,0.128296,0.773315,0,0,0
65,0.335878,0.183206,-2.244275,-0.594238,0.127563,0.77771,0,0,0
68,0.167939,0.320611,-2.458015,-0.598389,0.134033,0.789185,0,0,0
71,0.229008,0.381679,-2.274809,-0.595825,0.129272,0.7854,0,0,0
74,0.763359,-0.335878,-1.068702,-0.60022,0.121094,0.790161,0,0,0
77,1.282443,-0.030534,-2.229008,-0.607788,0.130737,0.799072,0,0,0
80,1.374046,-0.763359,-1.740458,-0.610962,0.133179,0.804565,0,0,0
83,1.358779,-0.442748,-2.045802,-0.601562,0.135254,0.798828,0,0,0
86,0.80916,-0.854962,-2.244275,-0.612671,0.140747,0.80188,0,0,0
89,0.534351,-1.526718,-1.206107,-0.608887,0.130249,0.802246,0,0,0
92,0.564885,-1.419847,-1.801527,-0.611206,0.137451,0.807739,0,0,0
95,0.549618,-1.755725,-1.770992,-0.613403,0.138062,0.799438,0,0,0
98,0.473282,-1.862595,-1.419847,-0.607544,0.137329,0.79541,0,0,0
101,0.625954,-2.122137,-1.328244,-0.605469,0.138184,0.795898,0,0,0
104,0.503817,-2.076336,-1.419847,-0.600708,0.140747,0.788696,0,0,0
107,0.305344,-2.351145,-1.114504,-0.601318,0.140137,0.7854,0,0,0
110,0.152672,-2.290076,-1.145038,-0.596436,0.147705,0.77832,0,0,0
113,-0.152672,-2,-1.068702,-0.591919,0.146118,0.773804,0,0,0
116,-0.183206,-2.076336,-0.549618,-0.589722,0.140137,0.767212,0,0,0
119,-0.061069,-1.648855,-0.656489,-0.584229,0.144287,0.764038,0,0,0
122,-0.061069,-1.419847,-0.396947,-0.581421,0.137817,0.758667,0,0,0
125,-0.045802,-0.977099,-0.351145,-0.579834,0.13562,0.756226,0,0,0
128,-0.152672,-0.610687,-0.259542,-0.57666,0.136963,0.756226,0,0,0
131,-0.137405,-0.412214,-0.061069,-0.573975,0.130005,0.748901,0,0,0
134,-0.320611,0.152672,-0.274809,-0.577759,0.130615,0.747192,0,0,0
137,-0.030534,0.610687,-0.061069,-0.575928,0.125244,0.749878,0,0,0
140,0.091603,1.099237,-0.183206,-0.580933,0.125,0.754028,0,0,0
143,0.320611,1.358779,-0.061069,-0.579712,0.122559,0.756592,0,0,0
146,0.641221,1.78626,-0.351145,-0.579956,0.123779,0.761353,0,0,0
149,0.763359,2.076336,-0.458015,-0.582642,0.121826,0.764893,0,0,0
152,0.763359,2.122137,-0.580153,-0.581543,0.124878,0.767456,0,0,0
155,0.564885,2.305344,-0.59542,-0.584229,0.123657,0.77417,0,0,0
158,0.48855,2.290076,-0.70229,-0.587036,0.129761,0.774292,0,0,0
161,0.534351,2.396947,-0.778626,-0.58728,0.127075,0.779175,0,0,0
164,0.687023,2.458015,-0.900763,-0.593262,0.130127,0.783203,0,0,0
167,0.656489,2.396947,-0.885496,-0.594849,0.132446,0.786133,0,0,0
170,0.534351,2.427481,-1.053435,-0.600098,0.13501,0.78772,0,0,0
173,0.580153,2.396947,-1.083969,-0.598999,0.130493,0.786255,0,0,0
176,0.656489,2.152672,-1.175573,-0.600098,0.136475,0.790649,0,0,0
179,0.412214,2.274809,-1.251908,-0.599731,0.139282,0.789185,0,0,0
182,0.152672,2.045802,-1.267176,-0.604492,0.141357,0.78894,0,0,0
185,-0.061069,2,-1.206107,-0.601685,0.143677,0.788696,0,0,0
188,-0.244275,1.847328,-1.29771,-0.602783,0.143433,0.786377,0,0,0
191,-0.351145,1.832061,-1.282443,-0.599976,0.14563,0.790405,0,0,0
194,-0.641221,1.862595,-1.114504,-0.603149,0.144653,0.784302,0,0,0
197,-0.610687,1.755725,-1.145038,-0.599365,0.145508,0.782227,0,0,0
200,-0.671756,1.954198,-0.977099,-0.599976,0.146851,0.777588,0,0,0
203,-0.641221,2.030534,-0.870229,-0.601196,0.147095,0.777588,0,0,0
206,-0.778626,2.229008,-0.80916,-0.601196,0.143921,0.772827,0,0,0
209,-0.687023,2.351145,-0.580153,-0.596436,0.144287,0.7771,0,0,0
212,-0.656489,2.503817,-0.503817,-0.598877,0.143066,0.775879,0,0,0
215,-0.824427,2.59542,-0.351145,-0.59729,0.141724,0.775757,0,0,0
218,-0.717557,2.732824,-0.320611,-0.595825,0.139648,0.774658,0,0,0
221,-0.793893,2.80916,-0.183206,-0.594116,0.142212,0.773438,0,0,0
224,-0.748092,2.931298,-0.305344,-0.595581,0.141479,0.77478,0,0,0
227,-0.717557,3.129771,-0.045802,-0.595093,0.140991,0.772095,0,0,0
230,-0.885496,3.053435,-0.167939,-0.595215,0.140869,0.778442,0,0,0
233,-0.732824,3.236641,-0.167939,-0.596924,0.139648,0.776001,0,0,0
236,-0.763359,3.450382,-0.244275,-0.593994,0.138916,0.775513,0,0,0
239,-0.885496,3.465649,-0.10687,-0.597656,0.136841,0.778687,0,0,0
242,-0.854962,3.40458,0.015267,-0.599365,0.142944,0.774902,0,0,0
245,-0.763359,3.541985,-0.045802,-0.60083,0.140015,0.778931,0,0,0
248,-0.854962,3.480916,0.015267,-0.596924,0.141479,0.780273,0,0,0
251,-0.854962,3.603053,0.167939,-0.601196,0.146973,0.779053,0,0,0
254,-0.885496,3.679389,0.290076,-0.601807,0.145386,0.778198,0,0,0
1,-0.748092,3.832061,0.412214,-0.602051,0.147827,0.77832,0,0,0
4,-0.793893,3.908397,0.641221,-0.605469,0.148682,0.77832,0,0,0
7,-0.824427,3.923664,0.671756,-0.603638,0.151001,0.776367,0,0,0
10,-0.885496,4.183206,0.900763,-0.601074,0.148438,0.777588,0,0,0
13,-0.961832,4.274809,1.068702,-0.600342,0.151611,0.77832,0,0,0
16,-1.038168,4.381679,1.343511,-0.601074,0.153198,0.775635,0,0,0
19,-1.022901,4.610687,1.40458,-0.600586,0.148926,0.7771,0,0,0
22,-1.038168,4.625954,1.725191,-0.60083,0.148682,0.773926,0,0,0
25,-1.007634,4.824427,1.847328,-0.596802,0.147949,0.773315,0,0,0
28,-0.992366,5.038168,1.984733,-0.597046,0.145752,0.769897,0,0,0
31,-1.099237,5.129771,2.21374,-0.598267,0.147583,0.770752,0,0,0
34,-0.885496,5.374046,2.290076,-0.596558,0.145386,0.769165,0,0,0
37,-0.839695,5.664122,2.381679,-0.595825,0.146729,0.768555,0,0,0
40,-0.824427,5.755725,2.48855,-0.594604,0.139526,0.769775,0,0,0
43,-0.732824,6.137405,2.534351,-0.595581,0.140381,0.769897,0,0,0
46,-0.778626,6.244275,2.671756,-0.592773,0.13855,0.765625,0,0,0
49,-0.80916,6.396947,2.610687,-0.591431,0.134033,0.763428,0,0,0
52,-0.59542,6.549618,2.717557,-0.590942,0.136841,0.765503,0,0,0
55,-0.564885,6.916031,2.610687,-0.587646,0.13562,0.763794,0,0,0
58,-0.274809,7.022901,2.519084,-0.59021,0.137573,0.763672,0,0,0
61,-0.335878,7.129771,2.473282,-0.588135,0.138794,0.760742,0,0,0
64,-0.091603,7.343511,2.442748,-0.584106,0.137939,0.762939,0,0,0
67,0.290076,7.465649,2.335878,-0.579468,0.138306,0.752808,0,0,0
70,0.305344,7.832061,2.259542,-0.5802,0.138794,0.753174,0,0,0
73,0.183206,8.10687,2.137405,-0.57666,0.141846,0.748413,0,0,0
76,0.030534,8.335878,2.10687,-0.575806,0.143555,0.746704,0,0,0
79,0.045802,8.717557,1.954198,-0.575317,0.143433,0.746826,0,0,0
82,-0.015267,9.129771,1.908397,-0.577148,0.143188,0.741943,0,0,0
85,-0.030534,9.51145,1.78626,-0.575806,0.145752,0.743774,0,0,0
88,0,9.847328,1.78626,-0.576782,0.151367,0.741699,0,0,0
91,0.045802,10.305344,1.847328,-0.576172,0.150879,0.741089,0,0,0
94,0.091603,10.70229,1.862595,-0.579468,0.152954,0.745483,0,0,0
97,0.015267,10.961832,2.091603,-0.578247,0.154907,0.744751,0,0,0
100,0.10687,11.358779,2.21374,-0.577393,0.155518,0.747681,0,0,0
103,-0.091603,11.648855,2.244275,-0.57666,0.158325,0.747437,0,0,0
106,-0.030534,11.954198,2.320611,-0.577881,0.16272,0.743164,0,0,0
109,-0.122137,12.366412,2.412214,-0.582031,0.16626,0.746094,0,0,0
112,0.045802,12.641221,2.59542,-0.57959,0.163208,0.744995,0,0,0
115,-0.061069,12.961832,2.610687,-0.583496,0.163208,0.74707,0,0,0
118,0.015267,13.389313,2.824427,-0.583618,0.166626,0.74292,0,0,0
121,-0.091603,13.816794,2.839695,-0.583374,0.167847,0.745728,0,0,0
124,-0.030534,14.10687,3.007634,-0.586182,0.168823,0.744141,0,0,0
127,-0.137405,14.519084,3.206107,-0.586182,0.170654,0.743164,0,0,0
130,-0.137405,14.931298,3.328244,-0.584229,0.171265,0.745605,0,0,0
133,-0.381679,15.145038,3.603053,-0.583496,0.167725,0.745361,0,0,0
136,-0.290076,15.374046,3.709924,-0.582642,0.172729,0.74231,0,0,0
139,-0.335878,15.770992,3.587786,-0.582031,0.1698,0.742554,0,0,0
142,-0.442748,16,3.938931,-0.57959,0.175171,0.741577,0,0,0
145,-0.580153,16.427481,3.847328,-0.582275,0.174927,0.740845,0,0,0
148,-0.549618,16.854962,4.152672,-0.583008,0.176636,0.736328,0,0,0
151,-0.641221,17.251908,4.122137,-0.585449,0.179199,0.739868,0,0,0
154,-0.534351,17.343511,4.671756,-0.583374,0.175781,0.738525,0,0,0
157,-0.351145,17.923664,4.503817,-0.585205,0.176392,0.73291,0,0,0
160,-0.396947,18.244275,4.717557,-0.587524,0.177856,0.734863,0,0,0
163,-0.503817,18.732824,4.763359,-0.588501,0.179688,0.735107,0,0,0
166,-0.458015,19.343511,4.778626,-0.589233,0.181152,0.739136,0,0,0
169,-0.48855,19.770992,5.206107,-0.59436,0.185913,0.73999,0,0,0
172,-0.48855,20.061069,5.389313,-0.592163,0.183228,0.743286,0,0,0
175,-0.137405,20.59542,5.557252,-0.59375,0.185303,0.746826,0,0,0
178,0.167939,20.656489,5.557252,-0.595825,0.192383,0.747681,0,0,0
181,0.045802,20.793893,5.78626,-0.592285,0.198486,0.754517,0,0,0
184,0.229008,20.916031,5.664122,-0.594116,0.200195,0.751709,0,0,0
187,-0.030534,21.083969,6.015267,-0.592285,0.20752,0.753906,0,0,0
190,-0.21374,20.946565,6.183206,-0.590332,0.2146,0.755127,0,0,0
193,-0.458015,20.961832,6.564885,-0.593506,0.217529,0.754883,0,0,0
196,-0.610687,21.022901,6.824427,-0.591675,0.223877,0.755371,0,0,0
199,-0.870229,20.992366,7.145038,-0.592529,0.224609,0.755127,0,0,0
202,-0.961832,20.946565,7.206107,-0.598877,0.225342,0.759277,0,0,0
205,-1.618321,20.977099,7.419847,-0.599243,0.224731,0.762085,0,0,0
208,-1.954198,21.083969,7.435115,-0.602539,0.230469,0.766724,0,0,0
211,-2.396947,20.824427,7.526718,-0.609741,0.229614,0.773438,0,0,0
214,-3.251908,20.763359,7.496183,-0.611328,0.229248,0.777588,0,0,0
217,-3.725191,20.320611,7.679389,-0.618774,0.226196,0.783203,0,0,0
220,-4.21374,19.89313,7.755725,-0.620239,0.226807,0.792847,0,0,0
223,-4.59542,19.206107,7.816794,-0.619873,0.227417,0.799805,0,0,0
226,-4.946565,18.656489,7.847328,-0.626709,0.224976,0.802002,0,0,0
229,-5.419847,17.78626,7.89313,-0.629883,0.222412,0.805054,0,0,0
232,-6.122137,17.038168,7.755725,-0.626953,0.225098,0.807129,0,0,0
235,-6.80916,16.366412,7.709924,-0.628174,0.222168,0.811768,0,0,0
238,-7.450382,15.557252,7.419847,-0.630981,0.224487,0.81189,0,0,0
241,-8.259542,14.900763,7.328244,-0.629761,0.222168,0.809814,0,0,0
244,-8.839695,14.198473,7.374046,-0.631104,0.225708,0.802368,0,0,0
247,-9.19084,13.618321,7.374046,-0.626953,0.223389,0.802002,0,0,0
250,-9.633588,13.083969,7.557252,-0.624634,0.223755,0.796875,0,0,0
253,-9.923664,12.70229,7.603053,-0.622437,0.228271,0.789795,0,0,0
0,-10.198473,12.244275,7.633588,-0.618774,0.227661,0.785645,0,0,0
3,-10.305344,12.335878,7.78626,-0.609985,0.22998,0.776489,0,0,0
6,-10.854962,12.10687,7.816794,-0.608765,0.234619,0.766846,0,0,0
9,-11.145038,12.137405,7.832061,-0.606201,0.23291,0.758667,0,0,0
12,-11.801527,12.458015,8.030534,-0.609497,0.23877,0.760864,0,0,0
15,-12.259542,12.21374,8.80916,-0.606934,0.237183,0.752808,0,0,0
18,-12.427481,12.412214,8.885496,-0.599121,0.234741,0.746582,0,0,0
21,-12.59542,12.580153,9.312977,-0.599243,0.235352,0.746338,0,0,0
24,-12.854962,12.946565,9.526718,-0.596558,0.231567,0.735474,0,0,0
27,-12.977099,13.419847,9.908397,-0.596313,0.231567,0.73645,0,0,0
30,-13.374046,14.091603,10.244275,-0.591675,0.229858,0.734375,0,0,0
33,-13.725191,14.763359,10.549618,-0.593384,0.227295,0.733276,0,0,0
36,-13.633588,15.267176,11.068702,-0.595703,0.223022,0.730957,0,0,0
39,-13.740458,16.045802,11.053435,-0.59314,0.222046,0.733521,0,0,0
42,-13.862595,16.564885,11.496183,-0.598389,0.220337,0.735962,0,0,0
45,-13.709924,17.022901,12.045802,-0.5896,0.218262,0.736206,0,0,0
48,-13.419847,17.557252,12.10687,-0.59314,0.218872,0.743042,0,0,0
51,-13.541985,18.030534,12.381679,-0.592651,0.215576,0.742065,0,0,0
54,-13.618321,18.549618,12.335878,-0.59375,0.218262,0.741089,0,0,0
57,-14,19.022901,12.458015,-0.597656,0.220215,0.750122,0,0,0
60,-14.290076,19.389313,12.717557,-0.599854,0.223877,0.748169,0,0,0
63,-14.503817,19.816794,12.839695,-0.60022,0.223022,0.755737,0,0,0
66,-14.381679,20.351145,13.083969,-0.605225,0.216431,0.753296,0,0,0
69,-14.580153,20.717557,13.114504,-0.605713,0.220581,0.760376,0,0,0
72,-14.442748,21.053435,13.129771,-0.6073,0.224854,0.760132,0,0,0
75,-14.549618,21.374046,13.267176,-0.610962,0.226807,0.763672,0,0,0
78,-14.80916,21.343511,13.419847,-0.615234,0.226929,0.765015,0,0,0
81,-14.900763,22.061069,13.419847,-0.622192,0.233276,0.771118,0,0,0
84,-15.145038,21.862595,13.923664,-0.616211,0.233032,0.769775,0,0,0
87,-15.206107,22.198473,13.877863,-0.623779,0.234741,0.776855,0,0,0
90,-15.267176,22.274809,13.938931,-0.624878,0.238281,0.779297,0,0,0
93,-15.435115,22.229008,14.091603,-0.624146,0.238403,0.782104,0,0,0
96,-15.877863,22.412214,13.801527,-0.631348,0.241699,0.785156,0,0,0
99,-16.274809,22.290076,14.244275,-0.634888,0.243408,0.786743,0,0,0
102,-16.48855,22.152672,14.305344,-0.634033,0.243652,0.78772,0,0,0
105,-16.656489,21.89313,14.534351,-0.639282,0.242676,0.794678,0,0,0
108,-17.022901,21.755725,14.70229,-0.644409,0.249878,0.798584,0,0,0
111,-17.160305,21.557252,14.916031,-0.646118,0.250854,0.798462,0,0,0
114,-17.450382,21.328244,14.946565,-0.650513,0.254883,0.803833,0,0,0
117,-17.679389,20.671756,15.51145,-0.655518,0.255615,0.805664,0,0,0
120,-18.045802,20.458015,14.931298,-0.650757,0.259888,0.808716,0,0,0
123,-18.732824,20.030534,15.526718,-0.660889,0.263184,0.804932,0,0,0
126,-19.40458,19.801527,15.40458,-0.658813,0.263184,0.802246,0,0,0
129,-19.832061,19.480916,15.908397,-0.656982,0.265015,0.80127,0,0,0
132,-20.427481,19.389313,16.335878,-0.660278,0.262817,0.795776,0,0,0
135,-20.534351,19.083969,16.396947,-0.659058,0.262207,0.796753,0,0,0
138,-20.931298,18.854962,16.885496,-0.656494,0.262817,0.793701,0,0,0
141,-21.29771,19.007634,16.900763,-0.656006,0.266113,0.790894,0,0,0
144,-21.770992,18.610687,17.633588,-0.652466,0.261108,0.780762,0,0,0
147,-22.244275,18.80916,17.694656,-0.654297,0.266724,0.780518,0,0,0
150,-22.946565,19.679389,17.664122,-0.651367,0.262939,0.781006,0,0,0
153,-23.480916,19.938931,17.969466,-0.644775,0.263306,0.766235,0,0,0
156,-24.458015,20.763359,17.221374,-0.651123,0.272217,0.768921,0,0,0
159,-25.648855,21.007634,17.816794,-0.650513,0.264282,0.768921,0,0,0
162,-26.381679,21.450382,17.740458,-0.6521,0.263184,0.764526,0,0,0
165,-27.221374,21.450382,18.320611,-0.650879,0.261475,0.762451,0,0,0
168,-27.557252,21.389313,19.007634,-0.65686,0.255371,0.760254,0,0,0
171,-27.541985,21.419847,19.816794,-0.653442,0.246338,0.752808,0,0,0
174,-27.29771,21.480916,20.656489,-0.65271,0.245239,0.755005,0,0,0
177,-26.549618,21.267176,21.358779,-0.650391,0.241089,0.749634,0,0,0
180,-26.381679,21.832061,21.694656,-0.649536,0.241943,0.743164,0,0,0
183,-26.442748,22.305344,22.045802,-0.650879,0.240845,0.743408,0,0,0
186,-26.717557,22.885496,22.229008,-0.651489,0.240112,0.745483,0,0,0
189,-27.389313,23.328244,22.167939,-0.651733,0.240601,0.744995,0,0,0
192,-28.045802,23.923664,22.732824,-0.654053,0.238892,0.739258,0,0,0
195,-28.70229,24.70229,22.946565,-0.64978,0.234253,0.741699,0,0,0
198,-28.717557,25.19084,23.282443,-0.647949,0.233765,0.739502,0,0,0
201,-28.717557,25.389313,23.465649,-0.652954,0.231567,0.740234,0,0,0
204,-28.625954,26.259542,23.954198,-0.6521,0.226685,0.741821,0,0,0
207,-28.534351,26.824427,24.045802,-0.653687,0.233154,0.741943,0,0,0
210,-28.580153,27.145038,24.671756,-0.654297,0.228882,0.737793,0,0,0
213,-28.442748,27.954198,24.671756,-0.65332,0.229736,0.740356,0,0,0
216,-28.80916,28.198473,25.236641,-0.660645,0.231567,0.741821,0,0,0
219,-29.053435,28.717557,25.465649,-0.660034,0.231567,0.744995,0,0,0
222,-29.19084,29.557252,25.694656,-0.657959,0.233521,0.744629,0,0,0
225,-29.221374,29.816794,26.412214,-0.664551,0.226929,0.74292,0,0,0
228,-29.435115,30.519084,26.396947,-0.658569,0.231934,0.743652,0,0,0
231,-29.648855,31.282443,26.625954,-0.660278,0.22876,0.746826,0,0,0
234,-30.061069,32.183206,26.916031,-0.664185,0.232178,0.748413,0,0,0
237,-30.70229,33.068702,26.641221,-0.662964,0.233887,0.749634,0,0,0
240,-31.358779,33.801527,26.671756,-0.661377,0.235352,0.748413,0,0,0
243,-32.427481,34.351145,26.931298,-0.668335,0.238037,0.749878,0,0,0
246,-32.961832,34.671756,27.236641,-0.670776,0.238892,0.761353,0,0,0
249,-33.328244,34.412214,28.137405,-0.677979,0.232666,0.766968,0,0,0
252,-33.19084,34.244275,28.458015,-0.682617,0.232056,0.769775,0,0,0
255,-33.022901,33.801527,29.038168,-0.689087,0.225098,0.777954,0,0,0
2,-32.824427,33.175573,29.801527,-0.694458,0.22522,0.785645,0,0,0
5,-32.335878,31.954198,30.59542,-0.702637,0.221802,0.80249,0,0,0
8,-32.091603,30.900763,31.145038,-0.708496,0.222534,0.80957,0,0,0
11,-31.89313,29.740458,32.061069,-0.709351,0.215942,0.820312,0,0,0
14,-31.709924,28.748092,32.503817,-0.716431,0.208618,0.8302,0,0,0
17,-31.541985,27.755725,32.625954,-0.718506,0.209473,0.838257,0,0,0
20,-31.923664,26.763359,32.824427,-0.719238,0.210327,0.837158,0,0,0
23,-32.549618,25.603053,32.900763,-0.730469,0.214233,0.846436,0,0,0
26,-32.961832,24.274809,33.328244,-0.731445,0.210327,0.845093,0,0,0
29,-33.465649,23.160305,33.526718,-0.732056,0.208008,0.846802,0,0,0
32,-33.969466,21.740458,33.709924,-0.733154,0.20874,0.849487,0,0,0
35,-34.259542,20.732824,34,-0.73291,0.209961,0.846802,0,0,0
38,-34.625954,19.572519,34.290076,-0.7323,0.204346,0.842529,0,0,0
41,-34.793893,18.503817,34.534351,-0.727295,0.204468,0.836304,0,0,0
44,-34.992366,17.633588,34.641221,-0.72998,0.202393,0.833618,0,0,0
47,-35.129771,16.580153,34.961832,-0.724854,0.19812,0.827881,0,0,0
50,-35.740458,15.694656,34.961832,-0.723999,0.196167,0.817017,0,0,0
53,-36.076336,15.099237,35.145038,-0.723389,0.193848,0.817993,0,0,0
56,-36.396947,14.305344,35.312977,-0.720215,0.192139,0.809448,0,0,0
59,-36.977099,13.51145,35.19084,-0.721802,0.188354,0.801636,0,0,0
62,-37.603053,12.977099,35.465649,-0.715576,0.182983,0.794678,0,0,0
65,-37.847328,12.549618,35.618321,-0.714233,0.179565,0.78833,0,0,0
68,-38.152672,12.320611,35.343511,-0.712646,0.175171,0.781006,0,0,0
71,-38.549618,12.152672,35.343511,-0.714966,0.166748,0.778442,0,0,0
74,-38.961832,12.030534,35.343511,-0.707153,0.165283,0.773926,0,0,0
77,-39.19084,11.938931,35.251908,-0.705444,0.1604,0.770386,0,0,0
80,-39.389313,12.015267,35.083969,-0.706909,0.153198,0.764404,0,0,0
83,-39.51145,12.229008,34.946565,-0.697754,0.14917,0.761597,0,0,0
86,-39.984733,12.458015,34.732824,-0.701294,0.146973,0.764282,0,0,0
89,-40.015267,12.916031,34.610687,-0.700806,0.141357,0.758789,0,0,0
92,-39.89313,13.099237,34.48855,-0.70105,0.137817,0.758423,0,0,0
95,-40,13.419847,34.335878,-0.69873,0.132935,0.757568,0,0,0
98,-39.832061,13.648855,34.244275,-0.700562,0.130615,0.757446,0,0,0
101,-39.572519,14,34.198473,-0.69812,0.129517,0.76001,0,0,0
104,-38.977099,14.473282,34.061069,-0.700195,0.130249,0.762207,0,0,0
107,-38.748092,14.824427,33.847328,-0.704224,0.127441,0.768921,0,0,0
110,-38.641221,14.931298,33.877863,-0.707886,0.126465,0.776367,0,0,0
113,-38.442748,14.931298,33.633588,-0.708496,0.12793,0.78479,0,0,0
116,-38.198473,14.763359,33.679389,-0.717163,0.12561,0.797607,0,0,0
119,-38.061069,14.458015,33.618321,-0.723877,0.120972,0.804199,0,0,0
122,-37.862595,14.137405,33.389313,-0.724976,0.121826,0.811035,0,0,0
125,-37.603053,13.709924,33.099237,-0.733032,0.121826,0.821045,0,0,0
128,-37.29771,12.961832,32.977099,-0.744507,0.119995,0.830444,0,0,0
131,-37.19084,12.366412,32.687023,-0.737915,0.121338,0.832642,0,0,0
134,-37.007634,11.725191,32.549618,-0.750854,0.123779,0.840576,0,0,0
137,-37.007634,10.961832,32.473282,-0.754761,0.123413,0.843628,0,0,0
140,-36.824427,10.10687,32.030534,-0.756226,0.123535,0.849854,0,0,0
143,-36.80916,8.870229,31.908397,-0.761475,0.12854,0.85376,0,0,0
146,-37.175573,8.351145,31.419847,-0.758911,0.132202,0.859619,0,0,0
149,-37.496183,6.900763,31.374046,-0.764038,0.132568,0.860474,0,0,0
152,-37.862595,5.770992,31.099237,-0.759399,0.13147,0.861084,0,0,0
155,-38.320611,4.610687,30.320611,-0.761475,0.133911,0.861206,0,0,0
158,-38.793893,3.755725,30.198473,-0.757324,0.132446,0.858276,0,0,0
161,-39.282443,2.564885,29.877863,-0.76062,0.132568,0.856201,0,0,0
164,-39.832061,1.664122,29.282443,-0.755737,0.133423,0.85376,0,0,0
167,-40.671756,0.610687,28.977099,-0.749878,0.133057,0.846924,0,0,0
170,-41.19084,-0.564885,28.549618,-0.749756,0.128052,0.839478,0,0,0
173,-41.618321,-1.145038,28.045802,-0.745239,0.125244,0.82959,0,0,0
176,-42.122137,-1.923664,27.541985,-0.73999,0.121582,0.820923,0,0,0
179,-42.717557,-2.412214,26.946565,-0.739136,0.123535,0.813599,0,0,0
182,-43.251908,-3.099237,26.793893,-0.727539,0.119507,0.805176,0,0,0
185,-43.664122,-3.206107,26.045802,-0.723877,0.117554,0.797119,0,0,0
188,-44.625954,-3.541985,25.679389,-0.72522,0.113159,0.792725,0,0,0
191,-44.992366,-3.40458,25.175573,-0.723389,0.116333,0.786987,0,0,0
194,-45.374046,-3.938931,25.221374,-0.715698,0.109131,0.777832,0,0,0
197,-45.709924,-3.419847,24.564885,-0.711792,0.110352,0.77417,0,0,0
200,-45.938931,-3.526718,24.717557,-0.7146,0.105225,0.769287,0,0,0
203,-45.877863,-3.40458,24.183206,-0.707764,0.103027,0.766357,0,0,0
206,-45.969466,-2.992366,23.832061,-0.711182,0.104248,0.767578,0,0,0
209,-46.21374,-3.083969,24.137405,-0.713013,0.099365,0.762451,0,0,0
212,-46.167939,-2.824427,23.847328,-0.708374,0.096558,0.764648,0,0,0
215,-46.396947,-2.625954,23.801527,-0.713013,0.092163,0.764771,0,0,0
218,-46.320611,-2.48855,23.725191,-0.718262,0.09375,0.7677,0,0,0
221,-46.427481,-2.045802,23.374046,-0.711548,0.092407,0.768555,0,0,0
224,-46.48855,-1.923664,23.755725,-0.720215,0.092407,0.769897,0,0,0
227,-46.427481,-1.648855,23.877863,-0.7229,0.078613,0.766113,0,0,0
230,-46.305344,-1.221374,23.557252,-0.731812,0.080688,0.776245,0,0,0
233,-46.244275,-0.900763,23.832061,-0.731567,0.075317,0.776489,0,0,0
236,-46.045802,-0.70229,24.229008,-0.732788,0.071411,0.784058,0,0,0
239,-45.587786,-0.152672,23.954198,-0.7323,0.069214,0.788574,0,0,0
242,-45.328244,-0.244275,24.564885,-0.739746,0.062134,0.795898,0,0,0
245,-44.625954,-0.167939,24.473282,-0.747192,0.059692,0.801025,0,0,0
248,-44.183206,0.091603,24.351145,-0.74707,0.060303,0.807617,0,0,0
251,-43.923664,-0.290076,24.824427,-0.755005,0.059082,0.815063,0,0,0
254,-43.374046,-0.076336,24.992366,-0.759033,0.057007,0.825684,0,0,0
1,-42.977099,-0.610687,25.221374,-0.756348,0.055298,0.824219,0,0,0
4,-42.625954,-1.038168,25.328244,-0.762085,0.061279,0.83252,0,0,0
7,-42.21374,-0.763359,25.450382,-0.770264,0.060181,0.840454,0,0,0
10,-41.725191,-1.541985,26.10687,-0.769287,0.049927,0.835571,0,0,0
13,-41.145038,-1.725191,25.923664,-0.766968,0.059814,0.842163,0,0,0
16,-41.129771,-2.183206,26.305344,-0.768188,0.061523,0.843384,0,0,0
19,-40.839695,-2.961832,26.503817,-0.778076,0.063721,0.848999,0,0,0
22,-40.70229,-3.557252,26.610687,-0.77124,0.068237,0.849487,0,0,0
25,-40.916031,-4.519084,27.099237,-0.778442,0.065674,0.848145,0,0,0
28,-40.778626,-4.80916,27.022901,-0.778931,0.067505,0.850708,0,0,0
31,-40.900763,-5.664122,27.694656,-0.782593,0.066406,0.85437,0,0,0
34,-40.503817,-6.183206,28,-0.776978,0.06189,0.850708,0,0,0
37,-40.137405,-6.458015,28.366412,-0.779907,0.0625,0.853638,0,0,0
40,-39.877863,-7.221374,28.687023,-0.776123,0.060791,0.842529,0,0,0
43,-39.633588,-7.648855,28.931298,-0.778564,0.062866,0.846313,0,0,0
46,-39.801527,-8.030534,29.343511,-0.778687,0.058472,0.845337,0,0,0
49,-39.480916,-8.48855,29.664122,-0.772339,0.056396,0.840088,0,0,0
52,-39.435115,-8.931298,30.061069,-0.770142,0.05542,0.840332,0,0,0
55,-39.374046,-9.267176,30.091603,-0.774048,0.051025,0.838013,0,0,0
58,-39.068702,-9.725191,30.274809,-0.773315,0.048584,0.837769,0,0,0
61,-39.175573,-10.625954,30.458015,-0.768677,0.048218,0.835693,0,0,0
64,-39.083969,-10.946565,30.427481,-0.771973,0.042236,0.83252,0,0,0
67,-38.458015,-11.282443,30.70229,-0.770752,0.035522,0.834595,0,0,0
70,-38.21374,-11.969466,30.793893,-0.77124,0.032104,0.833618,0,0,0
73,-37.725191,-12.396947,30.717557,-0.763428,0.029419,0.833618,0,0,0
76,-37.435115,-12.59542,30.916031,-0.766968,0.03064,0.838989,0,0,0
79,-36.839695,-13.618321,31.221374,-0.762939,0.03186,0.85376,0,0,0
82,-36.091603,-15.389313,31.587786,-0.755371,0.026733,0.921387,0,0,0
85,-34.656489,-20.244275,32.015267,-0.769531,0.020874,0.96582,0,0,0
88,-31.496183,-29.89313,32.610687,-0.783813,0.00061,0.949097,0,0,0
91,-27.755725,-35.694656,32.366412,-0.765137,-0.016113,0.848145,0,0,0
94,-26.137405,-34.366412,31.007634,-0.728638,0.002197,0.764648,0,0,0
97,-27.068702,-28.137405,30.381679,-0.746948,0.020752,0.720825,0,0,0
100,-29.129771,-24.290076,29.877863,-0.770874,0.039673,0.71228,0,0,0
103,-32.061069,-21.236641,28.824427,-0.76709,0.052979,0.733154,0,0,0
106,-35.145038,-19.603053,29.114504,-0.76062,0.047607,0.753906,0,0,0
109,-36.412214,-18.137405,28.839695,-0.745117,0.040771,0.78064,0,0,0
112,-36.167939,-17.633588,29.389313,-0.745117,0.030151,0.798462,0,0,0
115,-34.473282,-17.969466,30.198473,-0.741577,0.020996,0.807129,0,0,0
118,-31.89313,-18.793893,30.351145,-0.735229,0.023926,0.814453,0,0,0
121,-29.740458,-19.938931,30.183206,-0.731689,0.030884,0.80957,0,0,0
124,-28.70229,-20.992366,29.908397,-0.730591,0.044312,0.80481,0,0,0
127,-28.839695,-21.877863,29.587786,-0.730957,0.053345,0.805054,0,0,0
130,-29.664122,-22.610687,29.40458,-0.734985,0.055908,0.806274,0,0,0
133,-30.320611,-23.770992,29.740458,-0.730957,0.047607,0.806519,0,0,0
136,-30.763359,-24.793893,29.694656,-0.729614,0.041016,0.808594,0,0,0
139,-30.412214,-25.740458,29.480916,-0.729858,0.040771,0.80481,0,0,0
142,-30.076336,-26.534351,29.358779,-0.727661,0.035278,0.801025,0,0,0
145,-29.648855,-26.931298,29.29771,-0.726074,0.037231,0.789795,0,0,0
148,-29.312977,-27.145038,29.40458,-0.728516,0.037842,0.789917,0,0,0
151,-28.564885,-27.267176,29.725191,-0.72876,0.040039,0.782959,0,0,0
154,-27.847328,-27.251908,30.015267,-0.727905,0.039917,0.777344,0,0,0
157,-27.175573,-26.900763,30.167939,-0.723267,0.042236,0.778931,0,0,0
160,-26.519084,-26.564885,30.59542,-0.720947,0.043213,0.772339,0,0,0
163,-25.801527,-26.198473,30.916031,-0.716064,0.047852,0.765503,0,0,0
166,-25.572519,-25.725191,31.129771,-0.717896,0.05188,0.76709,0,0,0
169,-25.236641,-25.19084,31.450382,-0.71521,0.053101,0.765747,0,0,0
172,-25.236641,-24.80916,31.603053,-0.702271,0.055786,0.763062,0,0,0
175,-25.328244,-24.732824,32.076336,-0.702515,0.055664,0.760742,0,0,0
178,-25.175573,-24.519084,32.427481,-0.698486,0.059937,0.761353,0,0,0
181,-24.992366,-24.015267,32.778626,-0.690918,0.057861,0.759399,0,0,0
184,-24.671756,-23.847328,33.068702,-0.692139,0.054077,0.759644,0,0,0
187,-24.229008,-23.877863,33.068702,-0.688843,0.054565,0.762207,0,0,0
190,-24.045802,-23.664122,32.656489,-0.684326,0.055786,0.757324,0,0,0
193,-24.10687,-23.694656,32.427481,-0.680786,0.061768,0.762085,0,0,0
196,-24.290076,-24.396947,32.580153,-0.688965,0.060425,0.765137,0,0,0
199,-24.610687,-24.335878,32.381679,-0.663452,0.055054,0.766724,0,0,0
202,-24.931298,-23.358779,31.679389,-0.663574,0.05603,0.763794,0,0,0
205,-25.312977,-23.328244,30.59542,-0.679688,0.061401,0.770386,0,0,0
208,-26.015267,-24.916031,31.206107,-0.672607,0.057007,0.772095,0,0,0
211,-25.969466,-24.732824,31.022901,-0.663208,0.056519,0.771973,0,0,0
214,-25.633588,-24.870229,31.664122,-0.662354,0.047974,0.772217,0,0,0
217,-24.610687,-25.236641,31.099237,-0.667603,0.048584,0.768799,0,0,0
220,-24.152672,-25.816794,30.610687,-0.653198,0.053223,0.769043,0,0,0
223,-24.473282,-26.183206,29.389313,-0.657227,0.066528,0.765259,0,0,0
226,-25.618321,-27.068702,28.717557,-0.655273,0.068115,0.765747,0,0,0
229,-26.992366,-27.282443,28.320611,-0.644775,0.078247,0.761597,0,0,0
232,-28.335878,-27.465649,28.793893,-0.646973,0.071289,0.756836,0,0,0
235,-28.839695,-27.236641,28.839695,-0.642822,0.068237,0.757202,0,0,0
238,-28.625954,-27.572519,29.251908,-0.639526,0.057007,0.751953,0,0,0
241,-28.091603,-27.328244,29.19084,-0.63208,0.057007,0.749146,0,0,0
244,-27.587786,-26.870229,29.175573,-0.628906,0.053589,0.745117,0,0,0
247,-27.51145,-26.427481,28.59542,-0.627808,0.056763,0.737549,0,0,0
250,-27.740458,-26.427481,28.167939,-0.629028,0.060669,0.733154,0,0,0
253,-28.824427,-26.21374,28.015267,-0.621338,0.058105,0.730957,0,0,0
0,-29.908397,-25.816794,27.709924,-0.617554,0.055054,0.72583,0,0,0
3,-30.748092,-25.572519,27.770992,-0.61853,0.049316,0.725342,0,0,0
6,-31.19084,-25.175573,27.51145,-0.612061,0.041992,0.7229,0,0,0
9,-31.40458,-24.610687,27.618321,-0.606812,0.038696,0.726685,0,0,0
12,-31.145038,-24.198473,27.847328,-0.606567,0.029297,0.723633,0,0,0
15,-30.793893,-23.832061,27.938931,-0.605103,0.026978,0.725952,0,0,0
18,-30.335878,-23.557252,28.015267,-0.602661,0.023071,0.728516,0,0,0
21,-29.923664,-22.778626,28.061069,-0.597778,0.012329,0.728027,0,0,0
24,-29.40458,-22.290076,27.587786,-0.605835,0.013428,0.727051,0,0,0
27,-29.053435,-21.954198,27.664122,-0.599976,0.006592,0.729004,0,0,0
30,-28.977099,-21.160305,27.358779,-0.598999,0.005127,0.734009,0,0,0
33,-28.748092,-20.778626,27.251908,-0.607544,0.005005,0.735107,0,0,0
36,-28.412214,-20.335878,27.282443,-0.603149,-0.001343,0.741943,0,0,0
39,-27.78626,-19.78626,27.145038,-0.607666,-0.00354,0.746338,0,0,0
42,-27.541985,-19.282443,27.175573,-0.61499,-0.006958,0.751953,0,0,0
45,-26.625954,-19.083969,27.068702,-0.61438,-0.013428,0.758423,0,0,0
48,-25.862595,-18.763359,27.312977,-0.61731,-0.015625,0.766235,0,0,0
51,-24.992366,-18.625954,27.435115,-0.626587,-0.016113,0.774902,0,0,0
54,-23.938931,-18.80916,27.175573,-0.631958,-0.015747,0.782837,0,0,0
57,-23.251908,-19.160305,26.885496,-0.641602,-0.014038,0.791748,0,0,0
60,-22.641221,-19.496183,26.870229,-0.646362,-0.014404,0.799561,0,0,0
63,-22.10687,-20.21374,27.114504,-0.646118,-0.018066,0.799683,0,0,0
66,-21.450382,-20.671756,26.656489,-0.649414,-0.016602,0.808472,0,0,0
69,-21.374046,-21.236641,26,-0.655029,-0.008911,0.810181,0,0,0
72,-21.068702,-21.832061,25.709924,-0.657104,-0.010864,0.817627,0,0,0
75,-21.068702,-22.381679,25.29771,-0.665527,-0.009277,0.821899,0,0,0
78,-20.80916,-23.129771,25.358779,-0.670166,-0.010498,0.832275,0,0,0
81,-20.442748,-24.183206,25.389313,-0.671509,-0.014771,0.836792,0,0,0
84,-19.89313,-24.961832,25.312977,-0.676147,-0.017578,0.842529,0,0,0
87,-19.175573,-25.801527,24.854962,-0.678833,-0.016968,0.848389,0,0,0
90,-18.396947,-27.022901,24.580153,-0.687744,-0.018066,0.855103,0,0,0
93,-18,-28.442748,24.274809,-0.691284,-0.015991,0.8573,0,0,0
96,-17.679389,-29.038168,23.923664,-0.682129,-0.013428,0.863037,0,0,0
99,-17.526718,-30.763359,23.832061,-0.693359,-0.015015,0.858521,0,0,0
102,-17.343511,-31.526718,23.29771,-0.679199,-0.014648,0.851074,0,0,0
105,-17.343511,-32.381679,22.977099,-0.683472,-0.010254,0.852661,0,0,0
108,-17.007634,-33.099237,22.458015,-0.684937,-0.012695,0.845825,0,0,0
111,-17.175573,-33.633588,21.038168,-0.679321,-0.002319,0.842529,0,0,0
114,-17.40458,-33.435115,20.885496,-0.672852,-0.007202,0.840088,0,0,0
117,-17.89313,-33.969466,20.625954,-0.680786,-0.004028,0.830688,0,0,0
120,-17.709924,-34.534351,20.351145,-0.675659,-0.002563,0.832031,0,0,0
123,-17.740458,-34.412214,19.633588,-0.666504,-0.004272,0.831177,0,0,0
126,-17.618321,-34.320611,18.641221,-0.669556,-0.00061,0.821777,0,0,0
129,-17.801527,-34.564885,18.183206,-0.674683,0.005127,0.824219,0,0,0
132,-17.816794,-35.053435,18.641221,-0.670288,-0.000244,0.827026,0,0,0
135,-17.480916,-35.40458,18.21374,-0.674072,0.00708,0.834106,0,0,0
138,-17.068702,-35.648855,18,-0.665771,0.007202,0.837524,0,0,0
141,-16.854962,-36.351145,17.587786,-0.672241,0.012573,0.84021,0,0,0
144,-16.732824,-36.183206,17.206107,-0.661743,0.014771,0.84021,0,0,0
147,-16.748092,-37.022901,16.931298,-0.670166,0.026733,0.845337,0,0,0
150,-17.374046,-37.969466,16.885496,-0.666626,0.029297,0.838501,0,0,0
153,-17.358779,-38.427481,17.053435,-0.660522,0.028198,0.841187,0,0,0
156,-17.282443,-38.748092,17.206107,-0.65979,0.033447,0.839111,0,0,0
159,-17.206107,-39.603053,17.022901,-0.655762,0.035278,0.833862,0,0,0
162,-16.870229,-39.877863,17.709924,-0.653076,0.033813,0.831299,0,0,0
165,-16.244275,-39.801527,17.954198,-0.643311,0.031372,0.824951,0,0,0
168,-15.572519,-39.89313,17.862595,-0.644653,0.037476,0.823486,0,0,0
171,-15.679389,-40,17.908397,-0.640625,0.040283,0.819458,0,0,0
174,-15.694656,-39.694656,18.045802,-0.628784,0.040405,0.816162,0,0,0
177,-15.709924,-39.419847,18.381679,-0.631958,0.03772,0.810791,0,0,0
180,-15.541985,-38.961832,18.70229,-0.627197,0.033203,0.806152,0,0,0
183,-15.709924,-38.427481,18.122137,-0.622314,0.03772,0.80542,0,0,0
186,-15.908397,-38.229008,18.305344,-0.623169,0.036865,0.803345,0,0,0
189,-16.045802,-38.320611,18.763359,-0.616943,0.034424,0.80249,0,0,0
192,-16,-36.503817,19.099237,-0.601685,0.032471,0.807861,0,0,0
195,-15.343511,-37.816794,21.221374,-0.613647,0.020142,0.786743,0,0,0
198,-13.847328,-37.389313,21.083969,-0.588135,0.015747,0.773682,0,0,0
201,-12.381679,-37.633588,21.450382,-0.608032,0.025635,0.781494,0,0,0
204,-11.709924,-35.877863,21.236641,-0.592407,0.023926,0.801025,0,0,0
207,-11.633588,-34.977099,21.099237,-0.595093,0.031006,0.79834,0,0,0
210,-12.061069,-34.70229,21.89313,-0.602539,0.030151,0.809937,0,0,0
213,-11.969466,-33.862595,22.045802,-0.599487,0.021973,0.819214,0,0,0
216,-11.801527,-33.816794,22.045802,-0.605591,0.022949,0.823853,0,0,0
219,-11.40458,-34.015267,22.732824,-0.601318,0.018433,0.825439,0,0,0
222,-10.854962,-33.969466,23.19084,-0.601929,0.015869,0.829956,0,0,0
225,-10.183206,-34.229008,23.419847,-0.610229,0.014282,0.831543,0,0,0
228,-9.267176,-34.427481,23.816794,-0.605713,0.012817,0.834229,0,0,0
231,-8.70229,-34.366412,23.923664,-0.607788,0.01001,0.84082,0,0,0
234,-8.59542,-34.80916,24.045802,-0.617432,0.010986,0.849487,0,0,0
237,-8.259542,-35.648855,24.59542,-0.625,0.00415,0.861572,0,0,0
240,-7.984733,-35.770992,24.656489,-0.622681,-0.005493,0.882446,0,0,0
243,-7.557252,-36.763359,24.137405,-0.643555,-0.013672,0.893433,0,0,0
246,-7.160305,-39.236641,23.450382,-0.650879,-0.017944,0.911621,0,0,0
249,-7.099237,-41.725191,23.679389,-0.648682,-0.019775,0.932373,0,0,0
252,-6.687023,-44.48855,23.938931,-0.662109,-0.029663,0.946899,0,0,0
255,-5.725191,-48.564885,24.122137,-0.670044,-0.036987,0.957275,0,0,0
2,-4.381679,-52.59542,23.801527,-0.665649,-0.040283,0.96521,0,0,0
5,-2.992366,-55.816794,22.732824,-0.668823,-0.038208,0.9646,0,0,0
8,-2.091603,-59.725191,22.198473,-0.669312,-0.03894,0.962158,0,0,0
11,-1.480916,-62.274809,21.022901,-0.666626,-0.036865,0.955322,0,0,0
14,-1.465649,-64.885496,19.709924,-0.662964,-0.035645,0.946899,0,0,0
17,-2.061069,-66.687023,17.89313,-0.65564,-0.027344,0.933594,0,0,0
20,-3.114504,-67.587786,16.931298,-0.655029,-0.027954,0.921265,0,0,0
23,-3.450382,-68.442748,15.78626,-0.652222,-0.028809,0.908447,0,0,0
26,-4.198473,-68.70229,14.137405,-0.648438,-0.019653,0.900391,0,0,0
29,-4.625954,-68.992366,13.664122,-0.645996,-0.02417,0.892578,0,0,0
32,-4.656489,-69.175573,12.549618,-0.644043,-0.016357,0.887695,0,0,0
35,-5.175573,-69.770992,11.694656,-0.647461,-0.012939,0.883789,0,0,0
38,-5.267176,-70.10687,11.236641,-0.636475,-0.01709,0.884033,0,0,0
41,-5.083969,-70.610687,9.938931,-0.632812,-0.009033,0.877563,0,0,0
44,-5.541985,-71.129771,8.992366,-0.639771,-0.001953,0.882935,0,0,0
47,-6.076336,-71.419847,8.305344,-0.625366,-0.002075,0.87915,0,0,0
50,-6.366412,-71.770992,7.725191,-0.626831,0.000366,0.877197,0,0,0
53,-6.519084,-71.984733,7.709924,-0.625244,-0.001587,0.872803,0,0,0
56,-6.381679,-71.755725,7.022901,-0.616821,-0.002197,0.871582,0,0,0
59,-6.320611,-71.709924,6.366412,-0.626099,0.00061,0.866455,0,0,0
62,-6.244275,-71.725191,6.442748,-0.615234,-0.005249,0.865845,0,0,0
65,-5.832061,-71.175573,5.694656,-0.615845,-0.001953,0.861328,0,0,0
68,-5.862595,-70.900763,5.40458,-0.612183,-0.000854,0.857056,0,0,0
71,-6.076336,-70.427481,4.610687,-0.606812,0.000488,0.857422,0,0,0
74,-6.458015,-69.572519,4.351145,-0.605347,0.001221,0.857422,0,0,0
77,-6.458015,-68.778626,4.10687,-0.602783,0.001221,0.859619,0,0,0
80,-6.80916,-67.908397,3.435115,-0.604126,0.004517,0.857666,0,0,0
83,-6.748092,-67.343511,3.801527,-0.602173,0.004272,0.87207,0,0,0
86,-6.167939,-67.435115,4.335878,-0.607056,-0.000488,0.878052,0,0,0
89,-5.465649,-67.358779,4.778626,-0.613403,-0.002197,0.893188,0,0,0
92,-4.137405,-67.755725,4.946565,-0.615356,-0.005371,0.901855,0,0,0
95,-3.022901,-68.076336,4.977099,-0.614624,-0.006836,0.912842,0,0,0
98,-2.030534,-68.259542,5.145038,-0.61499,-0.002686,0.921265,0,0,0
101,-1.450382,-68.793893,5.175573,-0.619873,-0.001099,0.925049,0,0,0
104,-0.961832,-69.099237,5.480916,-0.616699,0.004395,0.929321,0,0,0
107,-0.977099,-68.793893,5.541985,-0.613159,0.004639,0.929932,0,0,0
110,-0.641221,-68.885496,5.89313,-0.608276,0.01062,0.927246,0,0,0
113,-0.320611,-68.48855,5.877863,-0.604492,0.013794,0.924927,0,0,0
116,0.183206,-68.152672,6.229008,-0.60144,0.016968,0.921143,0,0,0
119,0.366412,-67.328244,6.656489,-0.598999,0.020386,0.915405,0,0,0
122,0.59542,-66.732824,7.114504,-0.595825,0.027344,0.909424,0,0,0
125,1.053435,-66.030534,8.076336,-0.588013,0.032104,0.901611,0,0,0
128,1.206107,-65.221374,9.19084,-0.594849,0.041016,0.89856,0,0,0
131,1.832061,-64.274809,10.21374,-0.583252,0.040039,0.893921,0,0,0
134,2.503817,-63.541985,11.29771,-0.577881,0.043457,0.885376,0,0,0
137,3.236641,-62.977099,12.671756,-0.571899,0.044189,0.882446,0,0,0
140,3.938931,-62.10687,13.557252,-0.568604,0.047119,0.876465,0,0,0
143,4.396947,-61.389313,14.732824,-0.556152,0.04541,0.876343,0,0,0
146,4.839695,-60.534351,15.832061,-0.558472,0.046387,0.879517,0,0,0
149,4.946565,-59.78626,16.931298,-0.556519,0.042725,0.883911,0,0,0
152,5.236641,-59.19084,18.030534,-0.55249,0.031982,0.894287,0,0,0
155,5.938931,-58.70229,18.824427,-0.553223,0.030396,0.89856,0,0,0
158,6.641221,-58.473282,19.679389,-0.550293,0.023682,0.913696,0,0,0
161,7.145038,-58.305344,20.045802,-0.546997,0.020752,0.918579,0,0,0
164,7.557252,-58.137405,20.274809,-0.550293,0.022949,0.922485,0,0,0
167,7.541985,-58.763359,20.70229,-0.551147,0.018311,0.932129,0,0,0
170,7.496183,-59.29771,20.80916,-0.549316,0.016357,0.944458,0,0,0
173,7.770992,-60.656489,21.526718,-0.555176,0.005371,0.94812,0,0,0
176,8.442748,-61.923664,21.709924,-0.553223,0.003174,0.963013,0,0,0
179,9.282443,-63.618321,22.122137,-0.554565,-0.000977,0.981323,0,0,0
182,10.030534,-66.59542,22.305344,-0.559814,-0.005737,0.994995,0,0,0
185,11.099237,-69.755725,22.381679,-0.558472,-0.006348,1.011597,0,0,0
188,11.679389,-73.572519,22.290076,-0.556641,-0.005371,1.020752,0,0,0
191,12.305344,-78.351145,21.969466,-0.557495,-0.004395,1.03064,0,0,0
194,13.160305,-82.320611,21.618321,-0.552612,-0.011475,1.025024,0,0,0
197,13.419847,-86.10687,20.717557,-0.55127,-0.008301,1.019653,0,0,0
200,13.954198,-90.259542,19.969466,-0.544678,-0.007324,1.016479,0,0,0
203,13.908397,-93.083969,18.732824,-0.540283,-0.001587,0.995972,0,0,0
206,13.541985,-94.992366,19.007634,-0.528931,-0.002563,1.003296,0,0,0
209,13.480916,-98.351145,18.519084,-0.532104,-0.005493,0.958374,0,0,0
212,13.770992,-100.061069,16.931298,-0.519409,0.001465,0.958862,0,0,0
215,13.389313,-100.549618,16.335878,-0.501587,0.000977,0.950317,0,0,0
218,12.564885,-102.458015,15.145038,-0.496582,0.007324,0.925659,0,0,0
221,11.40458,-103.312977,14.21374,-0.498047,0.016113,0.928955,0,0,0
224,10.412214,-105.038168,14.290076,-0.493652,0.009033,0.921143,0,0,0
227,9.938931,-105.160305,13.114504,-0.47583,0.004639,0.918823,0,0,0
230,9.603053,-105.633588,12.198473,-0.481812,0.005981,0.913574,0,0,0
233,9.328244,-105.969466,10.961832,-0.476074,0.001221,0.912109,0,0,0
236,8.870229,-106.061069,9.312977,-0.471924,0.003174,0.91333,0,0,0
239,8.045802,-106.870229,8.610687,-0.466919,-0.00293,0.903442,0,0,0
242,7.328244,-106.870229,7.389313,-0.465332,0.002197,0.902344,0,0,0
245,6.977099,-106.854962,6.534351,-0.455444,-0.005737,0.899658,0,0,0
248,6.641221,-106.732824,5.496183,-0.460083,-0.007202,0.894531,0,0,0
251,6.381679,-106.717557,4.732824,-0.459229,-0.008301,0.891602,0,0,0
254,6.564885,-106.076336,4.473282,-0.456421,-0.011597,0.895874,0,0,0
1,7.160305,-106.778626,3.816794,-0.457397,-0.018677,0.880615,0,0,0
4,7.526718,-106.015267,2.412214,-0.452271,-0.008423,0.894531,0,0,0
7,7.603053,-105.89313,2.244275,-0.449585,-0.012939,0.889771,0,0,0
10,7.954198,-105.648855,1.007634,-0.449829,-0.006958,0.888306,0,0,0
13,8.076336,-105.328244,0.580153,-0.447266,-0.005615,0.895508,0,0,0
16,8.320611,-104.641221,-0.290076,-0.446411,-0.000854,0.892212,0,0,0
19,8.763359,-104.641221,-0.778626,-0.444946,0.000977,0.892578,0,0,0
22,9.038168,-103.679389,-1.572519,-0.445923,0.00061,0.898926,0,0,0
25,9.358779,-103.526718,-1.938931,-0.441895,0.007812,0.901489,0,0,0
28,9.312977,-103.007634,-3.603053,-0.444336,0.015747,0.897339,0,0,0
31,9.19084,-103.312977,-3.679389,-0.449585,0.026123,0.912354,0,0,0
34,9.007634,-103.160305,-3.694656,-0.440063,0.029175,0.903687,0,0,0
37,9.496183,-104.183206,-3.862595,-0.448242,0.040649,0.885864,0,0,0
40,10.396947,-104.045802,-4.198473,-0.439209,0.043091,0.891479,0,0,0
43,11.007634,-103.343511,-4.381679,-0.429932,0.050415,0.887329,0,0,0
46,11.541985,-103.053435,-4.381679,-0.439209,0.060913,0.878174,0,0,0
49,12.061069,-102.580153,-4.564885,-0.434326,0.071289,0.881714,0,0,0
52,12.045802,-101.755725,-4.59542,-0.434448,0.079468,0.880127,0,0,0
55,12.030534,-101.160305,-3.89313,-0.437988,0.082397,0.877808,0,0,0
58,12.381679,-100.274809,-3.145038,-0.428101,0.08252,0.87915,0,0,0
61,12.778626,-98.961832,-3.282443,-0.43103,0.088257,0.883301,0,0,0
64,12.885496,-97.984733,-2.564885,-0.425903,0.087646,0.880615,0,0,0
67,13.083969,-96.748092,-2.198473,-0.430176,0.095337,0.891479,0,0,0
70,13.114504,-95.618321,-2.076336,-0.429688,0.096802,0.901611,0,0,0
73,12.946565,-96.458015,-1.358779,-0.437012,0.092285,0.898315,0,0,0
76,13.007634,-96.10687,-0.977099,-0.441895,0.089844,0.934937,0,0,0
79,13.083969,-96.320611,-0.259542,-0.439941,0.078247,0.948975,0,0,0
82,13.78626,-97.389313,-0.290076,-0.453369,0.075073,0.964478,0,0,0
85,14.274809,-98.335878,-0.229008,-0.453857,0.067627,0.998169,0,0,0
88,14.992366,-99.450382,-0.625954,-0.457397,0.066284,1.011353,0,0,0
91,15.358779,-101.312977,-0.59542,-0.464844,0.061768,1.032227,0,0,0
94,16.21374,-102.748092,-0.335878,-0.471802,0.054443,1.056519,0,0,0
97,16.961832,-104.564885,-0.458015,-0.48291,0.050781,1.072876,0,0,0
100,17.587786,-106.503817,-0.977099,-0.485229,0.049194,1.085205,0,0,0
103,18.137405,-109.022901,-0.656489,-0.496948,0.050903,1.09314,0,0,0
106,18.519084,-111.389313,-0.824427,-0.485718,0.05542,1.093018,0,0,0
109,18.748092,-113.862595,-1.343511,-0.490112,0.064209,1.093994,0,0,0
112,18.59542,-116.259542,-1.160305,-0.479614,0.068481,1.089233,0,0,0
115,18.351145,-117.358779,-0.931298,-0.474121,0.079834,1.088989,0,0,0
118,18.366412,-120.198473,-0.305344,-0.483521,0.083862,1.059082,0,0,0
121,18.442748,-121.541985,-0.763359,-0.466187,0.096436,1.064453,0,0,0
124,18.10687,-121.435115,-0.076336,-0.454956,0.099243,1.042358,0,0,0
127,18.167939,-122.610687,0.381679,-0.441895,0.1073,1.011475,0,0,0
130,17.541985,-122.458015,0.580153,-0.43689,0.116089,1.002563,0,0,0
133,17.19084,-122.076336,1.221374,-0.415894,0.120117,0.976074,0,0,0
136,16.274809,-120.900763,1.78626,-0.401855,0.126465,0.96167,0,0,0
139,15.557252,-119.603053,2.198473,-0.391724,0.124634,0.939453,0,0,0
142,14.671756,-117.938931,1.755725,-0.376099,0.136353,0.91687,0,0,0
145,13.160305,-116.625954,2.396947,-0.368164,0.133667,0.904785,0,0,0
148,11.557252,-114.519084,2.137405,-0.353149,0.130615,0.889038,0,0,0
151,9.89313,-113.053435,2.564885,-0.343628,0.131348,0.875366,0,0,0
154,8.916031,-111.526718,3.526718,-0.335815,0.118774,0.862183,0,0,0
157,8.381679,-109.328244,3.343511,-0.322754,0.111694,0.854126,0,0,0
160,7.908397,-107.40458,3.496183,-0.315918,0.109497,0.849121,0,0,0
163,7.679389,-105.740458,4.244275,-0.306274,0.09668,0.837036,0,0,0
166,7.755725,-103.343511,4.473282,-0.297119,0.08667,0.832153,0,0,0
169,7.984733,-101.78626,4.763359,-0.296509,0.079224,0.827637,0,0,0
172,8.305344,-100.48855,4.717557,-0.287476,0.076172,0.830444,0,0,0
175,8.229008,-99.312977,4.625954,-0.279297,0.067017,0.832886,0,0,0
178,7.862595,-98.473282,4.549618,-0.276367,0.063721,0.831543,0,0,0
181,8,-97.78626,4.854962,-0.271729,0.053589,0.837158,0,0,0
184,8.564885,-96.778626,4.946565,-0.268921,0.043335,0.837891,0,0,0
187,9.648855,-96.152672,5.145038,-0.261841,0.034546,0.841309,0,0,0
190,10.793893,-94.992366,5.29771,-0.255859,0.024536,0.843384,0,0,0
193,12.183206,-93.29771,4.778626,-0.260132,0.019775,0.85498,0,0,0
196,13.40458,-92.442748,4.198473,-0.259766,0.013184,0.863037,0,0,0
199,14.10687,-91.114504,3.419847,-0.258179,0.011108,0.87146,0,0,0
202,14.503817,-89.862595,2.793893,-0.261475,0.00293,0.884155,0,0,0
205,14.870229,-89.145038,2.21374,-0.266113,0.002808,0.897705,0,0,0
208,15.160305,-88.549618,1.587786,-0.268066,0.001709,0.91394,0,0,0
211,15.541985,-87.89313,0.717557,-0.261597,0,0.917969,0,0,0
214,16.198473,-87.114504,0.229008,-0.265747,0.000977,0.926025,0,0,0
217,16.625954,-86.839695,-0.427481,-0.270508,0.002075,0.928223,0,0,0
220,16.793893,-86.503817,-1.175573,-0.265747,0.005249,0.93396,0,0,0
223,17.312977,-86.519084,-1.236641,-0.268677,0.01062,0.939331,0,0,0
226,17.618321,-86.931298,-1.618321,-0.271118,0.016113,0.938477,0,0,0
229,17.954198,-87.175573,-1.816794,-0.27124,0.017578,0.946167,0,0,0
232,18.80916,-87.755725,-1.984733,-0.269165,0.022827,0.95105,0,0,0
235,19.312977,-88.320611,-2.091603,-0.268799,0.030518,0.959595,0,0,0
238,20.152672,-89.160305,-1.954198,-0.266846,0.028687,0.959961,0,0,0
241,20.824427,-89.832061,-2.320611,-0.268311,0.030273,0.966797,0,0,0
244,21.450382,-90.427481,-2.70229,-0.272461,0.03772,0.986816,0,0,0
247,22.015267,-90.992366,-2.778626,-0.268799,0.03479,0.994141,0,0,0
250,22.519084,-91.694656,-3.282443,-0.276245,0.039429,0.999268,0,0,0
253,22.824427,-92.59542,-3.221374,-0.281616,0.036255,1.006348,0,0,0
0,23.007634,-93.557252,-3.221374,-0.27771,0.042114,1.016479,0,0,0
3,23.480916,-94.885496,-3.480916,-0.279907,0.042114,1.013794,0,0,0
6,23.328244,-95.755725,-4.167939,-0.287231,0.046875,1.028931,0,0,0
9,23.343511,-97.587786,-3.221374,-0.270386,0.042969,1.028198,0,0,0
12,23.221374,-99.206107,-3.78626,-0.274292,0.051636,1.029785,0,0,0
15,22.900763,-100.885496,-3.938931,-0.27771,0.055786,1.0354,0,0,0
18,22.580153,-102.992366,-3.969466,-0.267944,0.056763,1.03418,0,0,0
21,22.244275,-104.748092,-4.549618,-0.259521,0.062988,1.025635,0,0,0
24,22.030534,-106.305344,-4.916031,-0.259277,0.066772,1.01709,0,0,0
27,21.419847,-107.725191,-5.251908,-0.247437,0.074951,1.008789,0,0,0
30,20.732824,-108.656489,-5.374046,-0.241577,0.077515,0.998901,0,0,0
33,20.137405,-109.465649,-5.541985,-0.239746,0.084106,0.995361,0,0,0
36,19.89313,-110.473282,-5.374046,-0.236328,0.084961,0.983154,0,0,0
39,19.984733,-111.557252,-4.900763,-0.230347,0.079346,0.982422,0,0,0
42,20.274809,-111.954198,-4.229008,-0.226318,0.070435,0.975952,0,0,0
45,20.824427,-112.916031,-3.908397,-0.223022,0.072754,0.967651,0,0,0
48,21.374046,-113.145038,-3.740458,-0.214233,0.06958,0.95874,0,0,0
51,21.114504,-113.29771,-3.541985,-0.208008,0.071045,0.948364,0,0,0
54,21.007634,-113.419847,-3.908397,-0.193237,0.074341,0.930298,0,0,0
57,20.015267,-112.839695,-4.061069,-0.188599,0.077148,0.92334,0,0,0
60,19.053435,-112.198473,-4.076336,-0.173584,0.074951,0.908813,0,0,0
63,18.274809,-110.900763,-4.259542,-0.16272,0.07312,0.898193,0,0,0
66,17.603053,-109.847328,-4,-0.158936,0.068726,0.885498,0,0,0
69,17.328244,-108.21374,-4.48855,-0.153198,0.06897,0.883057,0,0,0
72,17.022901,-107.19084,-4.274809,-0.147339,0.064331,0.874756,0,0,0
75,16.80916,-105.78626,-4.732824,-0.145874,0.061768,0.879883,0,0,0
78,16.916031,-105.099237,-4.458015,-0.140503,0.054932,0.874268,0,0,0
81,17.328244,-104.21374,-4.732824,-0.132812,0.049683,0.874023,0,0,0
84,17.526718,-103.40458,-4.900763,-0.132935,0.048706,0.868896,0,0,0
87,17.755725,-102.564885,-5.251908,-0.120605,0.050171,0.857422,0,0,0
90,17.694656,-101.648855,-5.496183,-0.117432,0.047485,0.851807,0,0,0
93,17.358779,-100.351145,-6.030534,-0.111328,0.048218,0.844849,0,0,0
96,16.961832,-99.175573,-6.290076,-0.101685,0.046143,0.840088,0,0,0
99,16.961832,-97.526718,-6.839695,-0.094116,0.045898,0.827271,0,0,0
102,16.48855,-95.618321,-7.40458,-0.092651,0.045532,0.823364,0,0,0
105,16.030534,-93.541985,-8.274809,-0.091309,0.044434,0.817383,0,0,0
108,15.78626,-91.526718,-8.763359,-0.085815,0.041382,0.810425,0,0,0
111,15.648855,-89.282443,-9.374046,-0.085693,0.041382,0.802979,0,0,0
114,15.206107,-86.80916,-9.908397,-0.081543,0.038696,0.805054,0,0,0
117,15.312977,-84.885496,-10.458015,-0.0802,0.043823,0.79895,0,0,0
120,15.312977,-82.870229,-11.099237,-0.07605,0.037598,0.806152,0,0,0
123,15.267176,-80.656489,-11.450382,-0.080444,0.035889,0.807983,0,0,0
126,15.633588,-78.885496,-11.969466,-0.082275,0.036133,0.818115,0,0,0
129,15.78626,-77.29771,-12.580153,-0.080688,0.032471,0.82959,0,0,0
132,16.473282,-75.587786,-13.145038,-0.077026,0.029053,0.839233,0,0,0
135,16.656489,-74.229008,-13.664122,-0.088379,0.025269,0.851196,0,0,0
138,16.931298,-73.038168,-14.458015,-0.095215,0.027588,0.857666,0,0,0
141,17.114504,-72.030534,-15.053435,-0.092041,0.030762,0.866577,0,0,0
144,16.916031,-71.725191,-15.40458,-0.096191,0.031982,0.876221,0,0,0
147,16.916031,-71.40458,-16,-0.099365,0.030884,0.889038,0,0,0
150,17.022901,-71.435115,-16.625954,-0.101318,0.031128,0.90979,0,0,0
153,17.328244,-71.679389,-17.435115,-0.111084,0.031738,0.935181,0,0,0
156,17.633588,-72.10687,-17.755725,-0.117798,0.025146,0.959351,0,0,0
159,18.10687,-73.389313,-18.519084,-0.133423,0.022827,0.975464,0,0,0
162,18.503817,-74.580153,-19.358779,-0.130127,0.009888,0.992798,0,0,0
165,19.068702,-75.740458,-20.061069,-0.141602,0.001221,1.013306,0,0,0
168,19.770992,-77.526718,-21.19084,-0.136597,0.005981,1.026611,0,0,0
171,19.496183,-79.114504,-21.89313,-0.14917,0.004883,1.043091,0,0,0
174,19.343511,-81.221374,-23.160305,-0.14856,0.015503,1.050781,0,0,0
177,18.931298,-82.977099,-23.89313,-0.142578,0.020752,1.062256,0,0,0
180,18.229008,-84.931298,-24.885496,-0.144287,0.022583,1.061768,0,0,0
183,17.358779,-86.824427,-25.832061,-0.143066,0.027588,1.065796,0,0,0
186,16.519084,-88.977099,-26.564885,-0.141479,0.029297,1.062012,0,0,0
189,16.152672,-90.732824,-27.236641,-0.137695,0.036499,1.05896,0,0,0
192,15.984733,-92.59542,-27.862595,-0.138184,0.033813,1.056274,0,0,0
195,16.030534,-94.244275,-28.427481,-0.130005,0.040405,1.047119,0,0,0
198,16.229008,-95.648855,-28.931298,-0.127686,0.047485,1.035645,0,0,0
201,16.137405,-96.977099,-29.389313,-0.122925,0.050537,1.023804,0,0,0
204,16.015267,-97.923664,-30.122137,-0.1073,0.054321,1.00769,0,0,0
207,15.358779,-98.351145,-30.900763,-0.101685,0.063477,0.991821,0,0,0
210,14.641221,-99.007634,-31.587786,-0.101562,0.073486,0.975098,0,0,0
213,13.664122,-99.29771,-31.908397,-0.093506,0.074707,0.963013,0,0,0
216,13.038168,-99.587786,-32.244275,-0.091553,0.078735,0.946533,0,0,0
219,12.732824,-99.480916,-32.305344,-0.083618,0.08313,0.935791,0,0,0
222,12.503817,-98.870229,-32.59542,-0.074585,0.080811,0.919312,0,0,0
225,12.625954,-98.763359,-32.442748,-0.062256,0.079224,0.901367,0,0,0
228,12.961832,-97.78626,-32.519084,-0.065918,0.07605,0.891479,0,0,0
231,13.145038,-96.641221,-32.458015,-0.051758,0.077026,0.880005,0,0,0
234,13.801527,-95.480916,-32.305344,-0.047485,0.077026,0.869751,0,0,0
237,14.259542,-94.381679,-32.351145,-0.048828,0.077026,0.864136,0,0,0
240,14.80916,-92.656489,-32.320611,-0.038452,0.082275,0.85437,0,0,0
243,14.946565,-91.51145,-32.427481,-0.029907,0.08667,0.840698,0,0,0
246,15.068702,-89.816794,-32.427481,-0.026611,0.08606,0.833374,0,0,0
249,15.022901,-88.030534,-32.778626,-0.022339,0.09082,0.822754,0,0,0
252,15.603053,-86.152672,-32.641221,-0.020142,0.091919,0.812256,0,0,0
255,15.832061,-84.305344,-32.900763,-0.020508,0.099731,0.805298,0,0,0
2,15.984733,-82.381679,-32.534351,-0.014771,0.102417,0.805542,0,0,0
5,16.625954,-80.167939,-32.183206,-0.011963,0.102539,0.804565,0,0,0
8,17.40458,-78.473282,-31.847328,-0.014648,0.098633,0.807007,0,0,0
11,18.152672,-76.473282,-31.526718,-0.014282,0.098389,0.820557,0,0,0
14,19.175573,-74.80916,-31.083969,-0.019653,0.102173,0.829712,0,0,0
17,20.076336,-73.603053,-30.70229,-0.012207,0.100342,0.836792,0,0,0
20,20.70229,-72.320611,-30.473282,-0.014893,0.102905,0.845581,0,0,0
23,20.946565,-70.778626,-30.732824,-0.017578,0.101685,0.850464,0,0,0
26,21.038168,-69.801527,-30.900763,-0.018066,0.105347,0.854004,0,0,0
29,20.335878,-67.847328,-30.656489,-0.009888,0.109497,0.859375,0,0,0
32,20.381679,-66.381679,-30.687023,-0.021118,0.106567,0.860352,0,0,0
35,20.412214,-65.129771,-30.839695,-0.010864,0.102295,0.864502,0,0,0
38,20.305344,-63.877863,-30.870229,-0.012085,0.10437,0.872681,0,0,0
41,20.305344,-62.656489,-30.870229,-0.014771,0.104248,0.887939,0,0,0
44,20.671756,-61.908397,-30.824427,-0.018921,0.095825,0.907837,0,0,0
47,20.778626,-61.648855,-31.068702,-0.019897,0.097168,0.922852,0,0,0
50,20.793893,-61.541985,-31.129771,-0.020264,0.091919,0.94165,0,0,0
53,20.931298,-61.923664,-31.465649,-0.025391,0.089233,0.949585,0,0,0
56,21.068702,-62.381679,-31.496183,-0.027344,0.085571,0.959229,0,0,0
59,21.29771,-63.083969,-31.908397,-0.025269,0.087891,0.971436,0,0,0
62,21.221374,-63.664122,-32.030534,-0.025879,0.088501,0.969604,0,0,0
65,21.007634,-64.854962,-32.381679,-0.026001,0.087158,0.969116,0,0,0
68,20.80916,-66.015267,-32.427481,-0.013428,0.088501,0.965332,0,0,0
71,20.625954,-66.717557,-32.80916,-0.023315,0.088989,0.960693,0,0,0
74,20.48855,-67.740458,-32.854962,-0.019287,0.095337,0.956543,0,0,0
77,20.335878,-68.320611,-32.961832,-0.005615,0.094482,0.949219,0,0,0
80,20.183206,-68.519084,-33.465649,-0.011963,0.095947,0.949463,0,0,0
83,19.862595,-68.839695,-33.496183,-0.006714,0.088379,0.945923,0,0,0
86,19.770992,-69.19084,-33.78626,0.002075,0.090454,0.939209,0,0,0
89,19.557252,-69.328244,-34.091603,-0.000488,0.087524,0.937622,0,0,0
92,19.312977,-69.358779,-34.442748,-0.001465,0.084473,0.935791,0,0,0
95,19.053435,-69.221374,-34.839695,0.005615,0.0802,0.934448,0,0,0
98,18.793893,-69.312977,-35.343511,0.012451,0.077393,0.941528,0,0,0
101,18.534351,-69.328244,-35.938931,0.009521,0.064575,0.94397,0,0,0
104,18.183206,-69.526718,-36.854962,0.013916,0.06543,0.946777,0,0,0
107,17.587786,-69.984733,-37.725191,0.016724,0.05957,0.943848,0,0,0
110,17.40458,-70.122137,-38.045802,0.013062,0.04895,0.949219,0,0,0
113,17.038168,-71.29771,-38.992366,0.005005,0.052246,0.949707,0,0,0
116,16.977099,-72.48855,-39.847328,0.01355,0.047119,0.952148,0,0,0
119,17.282443,-73.389313,-40.427481,0.012207,0.043579,0.953979,0,0,0
122,17.847328,-74.687023,-40.793893,0.010742,0.036743,0.956299,0,0,0
125,18.946565,-75.206107,-41.694656,0.019409,0.035645,0.95752,0,0,0
128,19.847328,-75.603053,-42.442748,0.022583,0.039185,0.951416,0,0,0
131,20.671756,-75.862595,-43.480916,0.031372,0.041382,0.944824,0,0,0
134,20.977099,-75.206107,-44.564885,0.030518,0.045776,0.942993,0,0,0
137,20.656489,-75.114504,-45.78626,0.028931,0.060791,0.933838,0,0,0
140,20.137405,-74.870229,-46.916031,0.034424,0.068359,0.925537,0,0,0
143,19.099237,-73.969466,-47.984733,0.032837,0.076538,0.925781,0,0,0
146,18.549618,-74.076336,-48.625954,0.028564,0.082031,0.912842,0,0,0
149,18.427481,-73.89313,-49.145038,0.032471,0.09021,0.911499,0,0,0
152,18.610687,-74.458015,-49.29771,0.03479,0.094849,0.905396,0,0,0
155,19.145038,-75.328244,-49.374046,0.03772,0.102905,0.900146,0,0,0
158,19.89313,-75.908397,-49.358779,0.039062,0.108887,0.896973,0,0,0
161,20.870229,-76.839695,-49.328244,0.043457,0.118408,0.896606,0,0,0
164,21.541985,-77.51145,-49.526718,0.045288,0.120483,0.892944,0,0,0
167,22.122137,-77.465649,-49.633588,0.04248,0.130005,0.897583,0,0,0
170,22.244275,-77.465649,-49.740458,0.048828,0.134888,0.88562,0,0,0
173,22.10687,-77.343511,-50.091603,0.054565,0.148315,0.880127,0,0,0
176,21.709924,-77.251908,-49.847328,0.050537,0.149536,0.873779,0,0,0
179,21.129771,-76.687023,-50.045802,0.052246,0.155151,0.875854,0,0,0
182,20.549618,-76.152672,-49.969466,0.059082,0.158203,0.86731,0,0,0
185,19.938931,-75.664122,-50.305344,0.048828,0.158813,0.865601,0,0,0
188,19.312977,-75.374046,-50.396947,0.055176,0.162231,0.87146,0,0,0
191,18.625954,-75.007634,-49.862595,0.05603,0.158936,0.874023,0,0,0
194,18.885496,-75.160305,-49.160305,0.05249,0.151001,0.87561,0,0,0
197,19.618321,-75.221374,-48.961832,0.057495,0.146118,0.879517,0,0,0
200,20.48855,-74.687023,-48.870229,0.061523,0.144287,0.884644,0,0,0
203,20.70229,-74.519084,-48.839695,0.058716,0.146973,0.885498,0,0,0
206,20.717557,-74.091603,-48.992366,0.071777,0.150513,0.883789,0,0,0
209,20.061069,-73.557252,-49.160305,0.072266,0.15271,0.882324,0,0,0
212,19.160305,-72.748092,-49.496183,0.077759,0.153931,0.876587,0,0,0
215,17.984733,-71.694656,-49.816794,0.078003,0.156738,0.870361,0,0,0
218,16.70229,-70.885496,-50.167939,0.079346,0.159424,0.862427,0,0,0
221,15.633588,-69.770992,-50.152672,0.084961,0.159058,0.856201,0,0,0
224,14.80916,-68.48855,-50.167939,0.08667,0.158447,0.850098,0,0,0
227,14.48855,-67.465649,-49.740458,0.090332,0.152954,0.851074,0,0,0
230,14.671756,-66.900763,-49.465649,0.090698,0.14917,0.846802,0,0,0
233,15.267176,-65.954198,-49.29771,0.097412,0.150146,0.847412,0,0,0
236,15.938931,-64.824427,-49.175573,0.103149,0.147583,0.848389,0,0,0
239,16.21374,-63.801527,-49.022901,0.105713,0.142822,0.843994,0,0,0
242,16.320611,-62.564885,-49.022901,0.107788,0.14563,0.844238,0,0,0
245,16.366412,-61.19084,-49.129771,0.115112,0.145386,0.841797,0,0,0
248,15.923664,-59.679389,-49.633588,0.110229,0.147095,0.842407,0,0,0
251,15.221374,-58.549618,-49.19084,0.113037,0.145996,0.840576,0,0,0
254,14.412214,-57.51145,-49.709924,0.117676,0.146484,0.834106,0,0,0
1,13.984733,-56.503817,-49.709924,0.117798,0.141968,0.832397,0,0,0
4,13.618321,-54.961832,-50.229008,0.124268,0.136719,0.831665,0,0,0
7,13.419847,-54.076336,-50.534351,0.12439,0.137451,0.828613,0,0,0
10,13.19084,-53.206107,-50.580153,0.126953,0.13562,0.827637,0,0,0
13,13.343511,-51.648855,-50.961832,0.128296,0.136353,0.822266,0,0,0
16,13.770992,-50.458015,-50.732824,0.126587,0.132812,0.829712,0,0,0
19,14.152672,-49.374046,-51.053435,0.127319,0.135132,0.825806,0,0,0
22,14.244275,-47.832061,-51.618321,0.130493,0.139038,0.836914,0,0,0
25,14.412214,-46.732824,-51.557252,0.124634,0.131104,0.842896,0,0,0
28,14.458015,-45.618321,-52.427481,0.125366,0.133057,0.850464,0,0,0
31,14.534351,-45.068702,-52.183206,0.122681,0.126587,0.851318,0,0,0
34,15.022901,-44.229008,-52.641221,0.119507,0.12146,0.860596,0,0,0
37,15.435115,-43.587786,-53.374046,0.116699,0.125122,0.863403,0,0,0
40,15.282443,-42.717557,-53.984733,0.119385,0.126099,0.871216,0,0,0
43,15.389313,-42.015267,-54.396947,0.111816,0.124756,0.866333,0,0,0
46,15.19084,-41.358779,-54.580153,0.119019,0.128296,0.879517,0,0,0
49,15.251908,-41.496183,-55.221374,0.10498,0.131348,0.876465,0,0,0
52,15.557252,-41.709924,-55.51145,0.101562,0.128662,0.890015,0,0,0
55,15.938931,-41.78626,-55.801527,0.106567,0.126221,0.9021,0,0,0
58,16.625954,-42.152672,-56.198473,0.099243,0.12854,0.90918,0,0,0
61,17.709924,-42.656489,-56.656489,0.095581,0.129028,0.911987,0,0,0
64,18.564885,-43.129771,-56.900763,0.094604,0.133911,0.922852,0,0,0
67,18.961832,-43.603053,-57.694656,0.092896,0.140747,0.920044,0,0,0
70,19.022901,-43.78626,-58.427481,0.088867,0.151489,0.920898,0,0,0
73,18.839695,-43.984733,-58.854962,0.085083,0.158325,0.925293,0,0,0
76,18.458015,-44.412214,-58.900763,0.09021,0.157349,0.923584,0,0,0
79,18.458015,-44.778626,-59.816794,0.089722,0.173218,0.913208,0,0,0
82,17.877863,-45.51145,-59.603053,0.089844,0.181274,0.90625,0,0,0
85,17.816794,-45.282443,-60.061069,0.098633,0.19165,0.898315,0,0,0
88,17.282443,-45.465649,-60.305344,0.088501,0.203125,0.891846,0,0,0
91,17.19084,-45.648855,-59.664122,0.100098,0.202881,0.876465,0,0,0
94,17.251908,-44.824427,-60.229008,0.095703,0.213989,0.865845,0,0,0
97,17.083969,-44.244275,-59.587786,0.099243,0.21521,0.855957,0,0,0
100,16.916031,-43.267176,-59.770992,0.10498,0.22522,0.848755,0,0,0
103,16.305344,-42.198473,-60.061069,0.109741,0.230469,0.841187,0,0,0
106,15.557252,-41.572519,-59.251908,0.104614,0.227051,0.832275,0,0,0
109,14.900763,-39.938931,-59.587786,0.105103,0.234497,0.82312,0,0,0
112,14.335878,-39.099237,-59.29771,0.10498,0.234863,0.819336,0,0,0
115,14.152672,-37.816794,-58.305344,0.114258,0.228271,0.816162,0,0,0
118,14.244275,-36.122137,-58.442748,0.109863,0.228271,0.818237,0,0,0
121,14.59542,-35.572519,-57.618321,0.108887,0.222412,0.813354,0,0,0
124,14.48855,-34.152672,-57.419847,0.114014,0.221558,0.815308,0,0,0
127,14.274809,-32.916031,-57.145038,0.112305,0.222046,0.821045,0,0,0
130,13.755725,-32.290076,-56.564885,0.113037,0.218872,0.81897,0,0,0
133,13.633588,-30.931298,-56.610687,0.114502,0.217407,0.81958,0,0,0
136,13.282443,-30.015267,-56.625954,0.112793,0.215454,0.819458,0,0,0
139,12.824427,-28.961832,-56.564885,0.115967,0.212036,0.823975,0,0,0
142,12.687023,-27.557252,-56.473282,0.11145,0.209961,0.82666,0,0,0
145,12.473282,-26.458015,-56.549618,0.113281,0.213257,0.82373,0,0,0
148,12.351145,-25.328244,-56.396947,0.117188,0.216309,0.825684,0,0,0
151,12.580153,-23.725191,-56.427481,0.112549,0.213867,0.824951,0,0,0
154,12.427481,-22.366412,-56.59542,0.112671,0.219849,0.831299,0,0,0
157,12.274809,-20.992366,-56.366412,0.111694,0.219482,0.831299,0,0,0
160,12.290076,-19.648855,-56.381679,0.112915,0.221191,0.835938,0,0,0
163,12.259542,-18.152672,-56.015267,0.110962,0.219482,0.843872,0,0,0
166,12.320611,-17.022901,-55.938931,0.109985,0.224121,0.844116,0,0,0
169,12.70229,-16.076336,-55.526718,0.11377,0.224365,0.8479,0,0,0
172,12.671756,-14.839695,-55.343511,0.11084,0.227417,0.852783,0,0,0
175,12.748092,-14.183206,-55.206107,0.113403,0.233032,0.853394,0,0,0
178,12.656489,-13.358779,-55.068702,0.116211,0.242065,0.853271,0,0,0
181,12.274809,-12.70229,-54.763359,0.114868,0.244263,0.858276,0,0,0
184,12.259542,-12.091603,-54.396947,0.114258,0.250366,0.858643,0,0,0
187,12.320611,-11.587786,-53.969466,0.116943,0.250122,0.8573,0,0,0
190,12.48855,-11.175573,-53.572519,0.11084,0.249756,0.863525,0,0,0
193,13.206107,-10.732824,-53.267176,0.115723,0.244873,0.867798,0,0,0
196,13.618321,-10.351145,-52.793893,0.112427,0.24292,0.875854,0,0,0
199,14.305344,-10.519084,-52.442748,0.107422,0.240356,0.890869,0,0,0
202,14.900763,-10.916031,-52.305344,0.105591,0.236084,0.908447,0,0,0
205,14.992366,-11.51145,-52.183206,0.102417,0.233521,0.923462,0,0,0
208,15.038168,-12.473282,-52.442748,0.10083,0.225952,0.940674,0,0,0
211,14.824427,-13.29771,-52.778626,0.101807,0.224976,0.953247,0,0,0
214,14.183206,-14.320611,-53.267176,0.093994,0.218262,0.958618,0,0,0
217,13.587786,-15.633588,-53.633588,0.091309,0.222534,0.965088,0,0,0
220,13.29771,-16.427481,-54.229008,0.091919,0.218628,0.971069,0,0,0
223,12.916031,-17.603053,-54.687023,0.089722,0.219727,0.967407,0,0,0
226,12.458015,-18.885496,-55.450382,0.088135,0.223022,0.969971,0,0,0
229,12.229008,-19.984733,-55.694656,0.092651,0.22583,0.965332,0,0,0
232,11.969466,-20.778626,-56.412214,0.093872,0.229248,0.959473,0,0,0
235,11.832061,-21.832061,-56.671756,0.091553,0.234131,0.950439,0,0,0
238,11.694656,-22.824427,-57.175573,0.092407,0.238892,0.937866,0,0,0
241,11.633588,-23.358779,-57.541985,0.097412,0.245239,0.928467,0,0,0
244,11.51145,-24.137405,-57.679389,0.094727,0.25,0.920654,0,0,0
247,11.343511,-24.778626,-57.923664,0.098999,0.25647,0.916382,0,0,0
250,10.977099,-25.664122,-58.335878,0.098389,0.260376,0.915894,0,0,0
253,10.549618,-26.793893,-58.290076,0.098755,0.264893,0.918945,0,0,0
0,9.877863,-27.725191,-58.48855,0.095947,0.264282,0.915771,0,0,0
3,9.40458,-28.458015,-58.946565,0.095459,0.274048,0.916748,0,0,0
6,8.641221,-29.465649,-59.145038,0.095825,0.272583,0.917358,0,0,0
9,8.152672,-30.061069,-59.29771,0.097412,0.278687,0.911255,0,0,0
12,7.541985,-30.839695,-59.526718,0.094482,0.276489,0.913452,0,0,0
15,7.236641,-31.557252,-59.633588,0.098755,0.279541,0.905884,0,0,0
18,6.931298,-32.152672,-59.847328,0.097656,0.283203,0.902954,0,0,0
21,6.427481,-32.824427,-59.709924,0.090698,0.285645,0.899048,0,0,0
24,6.290076,-34.290076,-58.977099,0.099487,0.281616,0.890015,0,0,0
27,6.48855,-34.503817,-58.870229,0.105347,0.281738,0.880249,0,0,0
30,6.198473,-33.984733,-59.832061,0.098267,0.294312,0.871948,0,0,0
33,4.641221,-33.740458,-60,0.098145,0.300537,0.870361,0,0,0
36,3.40458,-33.282443,-59.007634,0.108154,0.293823,0.861084,0,0,0
39,2.870229,-32.045802,-59.160305,0.107178,0.289673,0.857056,0,0,0
42,2.854962,-31.496183,-58.580153,0.109375,0.282715,0.85022,0,0,0
45,3.114504,-31.374046,-58.48855,0.106934,0.285767,0.847168,0,0,0
48,3.160305,-31.099237,-58.80916,0.098267,0.283569,0.855591,0,0,0
51,3.068702,-31.923664,-58,0.095581,0.286377,0.859497,0,0,0
54,3.877863,-33.328244,-56.793893,0.10437,0.269653,0.852539,0,0,0
57,5.709924,-34.366412,-56.10687,0.112915,0.263672,0.852173,0,0,0
60,7.053435,-34.625954,-55.755725,0.118774,0.270142,0.847412,0,0,0
63,7.954198,-34.458015,-55.206107,0.130371,0.263428,0.843872,0,0,0
66,8.335878,-32.366412,-55.755725,0.142334,0.2677,0.830688,0,0,0
69,7.51145,-29.862595,-57.679389,0.134155,0.282471,0.823975,0,0,0
72,5.801527,-28.137405,-58.061069,0.139038,0.282593,0.823242,0,0,0
75,3.969466,-26.870229,-58.351145,0.134644,0.286621,0.819458,0,0,0
78,3.068702,-26.458015,-58.21374,0.13501,0.281738,0.808105,0,0,0
81,2.839695,-25.587786,-58.442748,0.141724,0.283813,0.807617,0,0,0
84,2.717557,-24.59542,-58.580153,0.143066,0.285156,0.797729,0,0,0
87,3.236641,-23.801527,-58.122137,0.148315,0.28064,0.791504,0,0,0
90,4.335878,-22.122137,-57.923664,0.154297,0.287231,0.787109,0,0,0
93,5.282443,-20.992366,-57.358779,0.154175,0.290771,0.782959,0,0,0
96,6.351145,-19.725191,-56.671756,0.154419,0.293823,0.775757,0,0,0
99,7.175573,-18.229008,-56.412214,0.152466,0.300171,0.772217,0,0,0
102,7.572519,-17.221374,-55.862595,0.156738,0.302856,0.768433,0,0,0
105,7.725191,-16.030534,-55.801527,0.15918,0.306763,0.76709,0,0,0
108,7.358779,-14.870229,-55.480916,0.155884,0.30957,0.761963,0,0,0
111,6.870229,-13.526718,-55.526718,0.155273,0.30603,0.765015,0,0,0
114,6.580153,-12.122137,-55.175573,0.160034,0.306519,0.761841,0,0,0
117,6.442748,-10.396947,-54.763359,0.159546,0.300049,0.757446,0,0,0
120,6.625954,-9.206107,-54.381679,0.159302,0.29541,0.757202,0,0,0
123,7.358779,-7.618321,-54.10687,0.160278,0.290527,0.760742,0,0,0
126,7.862595,-6.122137,-53.816794,0.157959,0.29248,0.762695,0,0,0
129,8.152672,-5.022901,-53.648855,0.158569,0.295776,0.762817,0,0,0
132,8.152672,-3.832061,-53.740458,0.162354,0.295654,0.76355,0,0,0
135,7.664122,-2.549618,-53.465649,0.161011,0.29834,0.764038,0,0,0
138,7.068702,-1.694656,-53.19084,0.15686,0.285889,0.77478,0,0,0
141,6.946565,-0.870229,-53.175573,0.151123,0.282715,0.78064,0,0,0
144,7.251908,-0.045802,-53.053435,0.151123,0.275024,0.796021,0,0,0
147,7.78626,0.610687,-53.007634,0.148682,0.271729,0.803955,0,0,0
150,8.10687,1.114504,-53.19084,0.144409,0.268921,0.815186,0,0,0
153,8.48855,1.496183,-53.358779,0.144653,0.264038,0.82312,0,0,0
156,8.503817,1.816794,-53.419847,0.135376,0.265503,0.832275,0,0,0
159,8.70229,2.076336,-53.557252,0.13501,0.261597,0.843506,0,0,0
162,8.549618,2.305344,-53.755725,0.13501,0.257935,0.843872,0,0,0
165,8.427481,2.641221,-54.122137,0.131226,0.257324,0.845093,0,0,0
168,8.244275,2.70229,-54.274809,0.130981,0.260254,0.85376,0,0,0
171,8,3.129771,-54.519084,0.135742,0.259888,0.85437,0,0,0
174,8.061069,3.480916,-54.656489,0.131226,0.258911,0.858398,0,0,0
177,7.862595,3.526718,-54.778626,0.130981,0.263184,0.858032,0,0,0
180,7.862595,3.51145,-54.931298,0.131836,0.263794,0.851685,0,0,0
183,7.618321,3.89313,-55.160305,0.138184,0.272949,0.8479,0,0,0
186,7.312977,4.274809,-54.900763,0.133911,0.275513,0.84668,0,0,0
189,7.358779,4.610687,-54.854962,0.136841,0.279053,0.850098,0,0,0
192,7.389313,4.977099,-54.885496,0.137817,0.277588,0.847534,0,0,0
195,7.419847,5.145038,-54.70229,0.136108,0.270752,0.85498,0,0,0
198,7.954198,5.312977,-54.687023,0.137207,0.269653,0.863647,0,0,0
201,8.48855,5.282443,-54.763359,0.133057,0.267212,0.870361,0,0,0
204,8.870229,5.175573,-54.748092,0.136353,0.267456,0.87915,0,0,0
207,9.343511,5.129771,-54.885496,0.130859,0.261841,0.893677,0,0,0
210,9.755725,4.839695,-55.038168,0.127686,0.263306,0.90332,0,0,0
213,10.045802,4.442748,-55.19084,0.125244,0.264038,0.918335,0,0,0
216,10.122137,3.801527,-55.572519,0.123047,0.265747,0.927246,0,0,0
219,10.503817,3.053435,-55.938931,0.121948,0.26355,0.933105,0,0,0
222,10.564885,2.259542,-56.091603,0.12207,0.272217,0.938232,0,0,0
225,10.549618,1.51145,-56.458015,0.116089,0.273438,0.942017,0,0,0
228,10.80916,0.656489,-56.519084,0.11853,0.279053,0.939087,0,0,0
231,11.053435,-0.10687,-56.854962,0.117432,0.281982,0.93811,0,0,0
234,11.328244,-0.671756,-57.19084,0.121826,0.29187,0.934326,0,0,0
237,11.19084,-1.526718,-57.29771,0.120117,0.300903,0.924316,0,0,0
240,10.961832,-2.152672,-57.435115,0.121338,0.308594,0.915527,0,0,0
243,11.267176,-2.625954,-57.312977,0.122925,0.315308,0.90625,0,0,0
246,11.450382,-3.099237,-57.343511,0.124023,0.323242,0.896362,0,0,0
249,11.664122,-3.480916,-57.099237,0.124512,0.331299,0.887085,0,0,0
252,11.755725,-3.801527,-56.946565,0.12915,0.338745,0.880981,0,0,0
255,11.923664,-4.137405,-56.580153,0.12561,0.346558,0.87439,0,0,0
2,11.938931,-4.549618,-56.458015,0.125122,0.346802,0.867188,0,0,0
5,12.045802,-4.854962,-56.167939,0.132935,0.349609,0.860107,0,0,0
8,12.137405,-4.763359,-55.954198,0.131104,0.356689,0.852905,0,0,0
11,12.198473,-4.900763,-55.435115,0.131836,0.35437,0.845581,0,0,0
14,12.274809,-4.778626,-55.358779,0.130737,0.362793,0.840332,0,0,0
17,11.832061,-4.580153,-55.007634,0.133789,0.355347,0.832397,0,0,0
20,11.603053,-4.549618,-54.778626,0.136475,0.362183,0.823608,0,0,0
23,11.312977,-4.274809,-54.59542,0.131958,0.361328,0.818726,0,0,0
26,11.053435,-3.847328,-54.412214,0.140869,0.366699,0.81311,0,0,0
29,10.80916,-3.603053,-54.015267,0.140747,0.362671,0.804199,0,0,0
32,10.59542,-3.068702,-53.969466,0.13916,0.364258,0.799072,0,0,0
35,10.305344,-2.412214,-53.694656,0.138794,0.360352,0.792725,0,0,0
38,10.030534,-1.801527,-53.419847,0.144775,0.357544,0.786255,0,0,0
41,9.832061,-1.160305,-53.099237,0.140625,0.352417,0.782349,0,0,0
44,9.908397,0.061069,-52.824427,0.143066,0.351685,0.780396,0,0,0
47,9.923664,0.732824,-52.473282,0.140991,0.345459,0.780029,0,0,0
50,9.78626,1.435115,-52.473282,0.144531,0.341675,0.776733,0,0,0
53,9.755725,2.48855,-52.335878,0.142334,0.338013,0.780396,0,0,0
56,9.40458,3.160305,-52.366412,0.139282,0.333984,0.78064,0,0,0
59,9.343511,4.061069,-52.396947,0.139771,0.329956,0.781494,0,0,0
62,9.114504,4.977099,-52.427481,0.139771,0.320068,0.781372,0,0,0
65,9.083969,5.89313,-52.534351,0.142334,0.316406,0.780273,0,0,0
68,9.099237,6.763359,-52.732824,0.144775,0.320679,0.786377,0,0,0
71,9.053435,7.832061,-52.992366,0.140259,0.315674,0.785645,0,0,0
74,8.961832,8.885496,-53.129771,0.141602,0.316406,0.786011,0,0,0
77,8.778626,9.89313,-53.328244,0.144775,0.315918,0.79187,0,0,0
