Packet number,Gyroscope X (deg/s),Gyroscope Y (deg/s),Gyroscope Z (deg/s),Accelerometer X (g),Accelerometer Y (g),Accelerometer Z (g),Magnetometer X (G),Magnetometer Y (G),Magnetometer Z (G)
53,-8.916031,2.381679,-8.961832,-0.814453,0.086182,0.569458,0,0,0
56,-8.610687,2,-8.458015,-0.814453,0.085083,0.566772,0,0,0
59,-8.015267,1.633588,-7.679389,-0.816895,0.084961,0.570801,0,0,0
62,-7.435115,1.465649,-7.114504,-0.814575,0.087524,0.568237,0,0,0
65,-7.068702,1.206107,-6.580153,-0.811035,0.088257,0.567383,0,0,0
68,-6.824427,0.992366,-6.198473,-0.812378,0.089966,0.572021,0,0,0
71,-6.335878,0.80916,-5.694656,-0.81189,0.09082,0.57251,0,0,0
74,-6.015267,0.732824,-5.267176,-0.810913,0.09021,0.574585,0,0,0
77,-5.816794,0.580153,-5.083969,-0.812256,0.090698,0.57666,0,0,0
80,-5.587786,0.427481,-4.687023,-0.810669,0.094604,0.575562,0,0,0
83,-5.557252,0.290076,-4.473282,-0.810059,0.094482,0.575317,0,0,0
86,-5.419847,0.10687,-4.21374,-0.807495,0.09375,0.577637,0,0,0
89,-5.114504,0.10687,-4,-0.80835,0.091797,0.575073,0,0,0
92,-5.022901,0.10687,-3.78626,-0.809326,0.09314,0.575562,0,0,0
95,-4.778626,-0.137405,-3.572519,-0.809082,0.092651,0.576782,0,0,0
98,-4.778626,-0.244275,-3.145038,-0.807129,0.09082,0.57605,0,0,0
101,-4.335878,-0.320611,-2.748092,-0.807739,0.08728,0.574829,0,0,0
104,-4.167939,-0.442748,-2.396947,-0.808838,0.085938,0.574707,0,0,0
107,-3.389313,-0.748092,-2.015267,-0.810425,0.081543,0.572754,0,0,0
110,-2.732824,-0.977099,-1.374046,-0.812378,0.077759,0.576782,0,0,0
113,-1.801527,-1.29771,-0.763359,-0.814453,0.079712,0.577271,0,0,0
116,-0.931298,-1.374046,-0.320611,-0.812378,0.080688,0.578003,0,0,0
119,-0.366412,-1.51145,0.183206,-0.80957,0.082764,0.578247,0,0,0
122,0.21374,-1.740458,0.458015,-0.807617,0.088867,0.57959,0,0,0
125,0.48855,-1.862595,0.824427,-0.809937,0.090454,0.5802,0,0,0
128,0.80916,-1.877863,1.038168,-0.809326,0.09375,0.579712,0,0,0
131,0.870229,-2.061069,1.160305,-0.80481,0.095093,0.581665,0,0,0
134,0.931298,-2.015267,1.267176,-0.806519,0.096436,0.580811,0,0,0
137,1.145038,-2.030534,1.435115,-0.804077,0.0896,0.57959,0,0,0
140,1.633588,-2.10687,1.725191,-0.806763,0.089111,0.578735,0,0,0
143,2.045802,-2.21374,2.076336,-0.803833,0.08606,0.581055,0,0,0
146,2.748092,-2.137405,2.381679,-0.805908,0.085205,0.583862,0,0,0
149,3.160305,-2.137405,2.717557,-0.803955,0.090576,0.583374,0,0,0
152,3.603053,-1.969466,2.977099,-0.802979,0.092163,0.582642,0,0,0
155,3.633588,-1.908397,3.175573,-0.802368,0.094727,0.586792,0,0,0
158,4.015267,-1.709924,3.374046,-0.800171,0.094971,0.586182,0,0,0
161,4,-1.633588,3.648855,-0.804321,0.096436,0.585327,0,0,0
164,4.21374,-1.435115,3.740458,-0.804688,0.096802,0.583862,0,0,0
167,4.381679,-1.129771,3.89313,-0.802124,0.093872,0.589844,0,0,0
170,4.320611,-0.870229,4,-0.802246,0.098267,0.586426,0,0,0
173,4.366412,-0.717557,4.10687,-0.79895,0.096436,0.58728,0,0,0
176,4.458015,-0.503817,4.366412,-0.800415,0.094849,0.587891,0,0,0
179,4.656489,-0.183206,4.396947,-0.798706,0.095825,0.587158,0,0,0
182,4.900763,0.045802,4.59542,-0.802734,0.09375,0.589111,0,0,0
185,5.053435,0.396947,4.80916,-0.802124,0.094116,0.586792,0,0,0
188,5.175573,0.610687,5.053435,-0.805054,0.09314,0.586914,0,0,0
191,5.389313,0.946565,5.312977,-0.804199,0.094849,0.585327,0,0,0
194,5.801527,1.175573,5.419847,-0.800537,0.095947,0.58374,0,0,0
197,5.877863,1.480916,5.587786,-0.803101,0.09729,0.586792,0,0,0
200,5.984733,1.801527,5.801527,-0.803223,0.097168,0.585571,0,0,0
203,6.167939,2.045802,6.10687,-0.802979,0.095703,0.585815,0,0,0
206,6.458015,2.427481,6.167939,-0.801758,0.097534,0.589355,0,0,0
209,6.458015,2.641221,6.534351,-0.801147,0.096558,0.585449,0,0,0
212,6.687023,3.114504,6.549618,-0.799561,0.09436,0.5896,0,0,0
215,6.80916,3.374046,7.053435,-0.799927,0.099121,0.585693,0,0,0
218,6.916031,3.755725,7.053435,-0.798096,0.099609,0.583984,0,0,0
221,6.870229,4.21374,7.19084,-0.800049,0.102173,0.586792,0,0,0
224,6.916031,4.549618,7.450382,-0.801758,0.104126,0.584595,0,0,0
227,6.885496,4.992366,7.526718,-0.803711,0.100952,0.584106,0,0,0
230,6.824427,5.29771,7.908397,-0.803589,0.097168,0.58606,0,0,0
233,6.992366,5.557252,8.21374,-0.804321,0.096802,0.584717,0,0,0
236,7.465649,5.969466,8.70229,-0.806519,0.093262,0.581787,0,0,0
239,7.679389,6.229008,9.022901,-0.805298,0.095947,0.58313,0,0,0
242,7.938931,6.366412,9.389313,-0.809692,0.099731,0.581055,0,0,0
245,8.10687,6.625954,9.664122,-0.807129,0.101318,0.582397,0,0,0
248,8.198473,6.641221,9.755725,-0.807373,0.10144,0.580688,0,0,0
251,8.091603,6.931298,9.908397,-0.80481,0.10791,0.578369,0,0,0
254,8.137405,7.022901,9.801527,-0.807739,0.108032,0.581177,0,0,0
1,7.816794,7.267176,9.78626,-0.807007,0.109497,0.578735,0,0,0
4,7.664122,7.465649,9.526718,-0.809326,0.108276,0.578369,0,0,0
7,7.40458,7.648855,9.557252,-0.807495,0.107666,0.57959,0,0,0
10,7.312977,7.587786,9.40458,-0.809082,0.112915,0.578491,0,0,0
13,6.931298,7.679389,9.282443,-0.809448,0.114014,0.577148,0,0,0
16,6.671756,7.725191,9.114504,-0.808838,0.114136,0.576782,0,0,0
19,6.503817,7.770992,9.022901,-0.804443,0.112183,0.581543,0,0,0
22,6.442748,7.969466,8.748092,-0.80835,0.114136,0.578613,0,0,0
25,6.152672,8.10687,8.503817,-0.804932,0.115723,0.578125,0,0,0
28,5.877863,8.290076,8.244275,-0.80127,0.117188,0.579468,0,0,0
31,5.603053,8.320611,7.954198,-0.805176,0.118286,0.577759,0,0,0
34,4.900763,8.442748,7.603053,-0.808228,0.119995,0.576904,0,0,0
37,4.458015,8.625954,7.129771,-0.805542,0.122681,0.579468,0,0,0
40,3.78626,8.732824,6.610687,-0.803711,0.123047,0.579468,0,0,0
43,3.358779,8.80916,6.244275,-0.805542,0.119507,0.578491,0,0,0
46,2.839695,9.038168,5.801527,-0.804932,0.121582,0.578857,0,0,0
49,2.442748,9.083969,5.374046,-0.807129,0.124268,0.576904,0,0,0
52,2.061069,9.236641,5.19084,-0.805908,0.119751,0.575317,0,0,0
55,1.633588,9.29771,4.977099,-0.806274,0.119995,0.578491,0,0,0
58,1.251908,9.343511,4.80916,-0.807007,0.114136,0.577148,0,0,0
61,1.267176,9.450382,4.854962,-0.804077,0.109497,0.576172,0,0,0
64,1.267176,9.450382,4.916031,-0.807251,0.109375,0.573608,0,0,0
67,1.40458,9.587786,4.977099,-0.806885,0.107666,0.575073,0,0,0
70,1.603053,9.587786,4.961832,-0.813843,0.112915,0.57312,0,0,0
73,1.648855,9.557252,5.053435,-0.809937,0.11377,0.572754,0,0,0
76,1.29771,9.679389,4.885496,-0.809326,0.115234,0.571655,0,0,0
79,1.175573,9.603053,4.80916,-0.81189,0.113403,0.573853,0,0,0
82,1.267176,9.419847,4.793893,-0.80896,0.113281,0.572998,0,0,0
85,1.328244,9.19084,4.946565,-0.808105,0.111938,0.574585,0,0,0
88,1.267176,9.29771,4.885496,-0.807373,0.111694,0.571167,0,0,0
91,1.389313,9.114504,5.038168,-0.809082,0.111572,0.572754,0,0,0
94,1.496183,9.114504,5.007634,-0.808594,0.112793,0.56958,0,0,0
97,1.526718,9.068702,4.946565,-0.813599,0.112305,0.567993,0,0,0
100,1.51145,8.900763,4.992366,-0.810791,0.113281,0.566528,0,0,0
103,1.572519,8.854962,4.839695,-0.810913,0.116943,0.565186,0,0,0
106,1.251908,8.59542,4.763359,-0.813599,0.115601,0.565186,0,0,0
109,1.419847,8.412214,4.641221,-0.817505,0.115967,0.563477,0,0,0
112,1.389313,8.10687,4.549618,-0.817017,0.112793,0.55957,0,0,0
115,1.480916,7.694656,4.458015,-0.817749,0.116333,0.562134,0,0,0
118,1.389313,7.267176,4.183206,-0.815918,0.120605,0.56189,0,0,0
121,1.221374,6.946565,3.816794,-0.819824,0.120239,0.562744,0,0,0
124,0.870229,6.625954,3.679389,-0.812866,0.122559,0.559448,0,0,0
127,0.564885,6.259542,3.51145,-0.816284,0.122681,0.560669,0,0,0
130,0.335878,6.137405,2.992366,-0.817505,0.118408,0.564819,0,0,0
133,0.198473,5.679389,2.977099,-0.818481,0.11853,0.564941,0,0,0
136,0.229008,5.374046,2.671756,-0.815918,0.118164,0.559326,0,0,0
139,0.137405,5.19084,2.519084,-0.814087,0.118652,0.562988,0,0,0
142,0.229008,4.992366,2.427481,-0.814575,0.116699,0.562134,0,0,0
145,0.076336,4.717557,2.427481,-0.813354,0.116577,0.564941,0,0,0
148,0.229008,4.427481,2.229008,-0.810669,0.117432,0.563599,0,0,0
151,0.167939,4.137405,2.045802,-0.810303,0.11853,0.560547,0,0,0
154,-0.076336,3.877863,1.938931,-0.812378,0.118896,0.555542,0,0,0
157,-0.152672,3.694656,1.725191,-0.80896,0.118652,0.555054,0,0,0
160,-0.305344,3.465649,1.236641,-0.81189,0.11731,0.559692,0,0,0
163,-0.351145,2.961832,1.236641,-0.815063,0.118286,0.565918,0,0,0
166,-0.534351,2.580153,1.251908,-0.820679,0.119873,0.571533,0,0,0
169,-0.564885,2.366412,1.29771,-0.820557,0.11731,0.57251,0,0,0
172,-0.534351,2.152672,1.221374,-0.820923,0.116211,0.567993,0,0,0
175,-0.427481,2,1.389313,-0.820068,0.112061,0.567505,0,0,0
178,-0.351145,1.923664,1.496183,-0.814453,0.109131,0.565552,0,0,0
181,0.076336,1.908397,1.679389,-0.812866,0.107544,0.563721,0,0,0
184,0.122137,1.755725,1.816794,-0.81311,0.106323,0.566162,0,0,0
187,0.458015,1.725191,2.015267,-0.812134,0.110229,0.568359,0,0,0
190,0.732824,1.633588,2.229008,-0.810913,0.11145,0.565674,0,0,0
193,0.854962,1.587786,2.244275,-0.811523,0.105835,0.56543,0,0,0
196,1.083969,1.572519,2.305344,-0.806885,0.110229,0.56665,0,0,0
199,1.175573,1.526718,2.519084,-0.80542,0.112915,0.567383,0,0,0
202,1.282443,1.557252,2.519084,-0.809082,0.111084,0.567749,0,0,0
205,1.374046,1.740458,2.580153,-0.806152,0.112549,0.569946,0,0,0
208,1.557252,1.984733,2.549618,-0.806396,0.113281,0.570068,0,0,0
211,1.664122,1.923664,2.671756,-0.81189,0.111206,0.57312,0,0,0
214,1.908397,1.969466,2.732824,-0.812256,0.116821,0.57251,0,0,0
217,1.78626,2,2.625954,-0.805908,0.12207,0.567627,0,0,0
220,1.694656,2.198473,2.290076,-0.811279,0.127319,0.568481,0,0,0
223,1.221374,2.198473,1.877863,-0.816528,0.124268,0.565918,0,0,0
226,0.748092,2.229008,1.51145,-0.8125,0.123413,0.567505,0,0,0
229,0.70229,2.167939,1.236641,-0.815918,0.119751,0.567627,0,0,0
232,0.625954,2.015267,1.022901,-0.82019,0.119629,0.567017,0,0,0
235,0.671756,1.938931,0.763359,-0.82019,0.119141,0.56665,0,0,0
238,0.580153,1.816794,0.610687,-0.822144,0.116211,0.567261,0,0,0
241,0.671756,1.572519,0.381679,-0.818359,0.118164,0.567139,0,0,0
244,0.381679,1.526718,0.244275,-0.811523,0.119507,0.564941,0,0,0
247,0.442748,1.465649,-0.061069,-0.813232,0.118164,0.561157,0,0,0
250,0.48855,1.435115,-0.290076,-0.808716,0.120117,0.561768,0,0,0
253,0.351145,1.343511,-0.580153,-0.80896,0.120728,0.561523,0,0,0
0,0.259542,1.312977,-0.748092,-0.806519,0.121826,0.559204,0,0,0
3,0.045802,1.374046,-1.083969,-0.807617,0.123169,0.560059,0,0,0
6,-0.122137,1.343511,-1.19084,-0.807983,0.118652,0.562622,0,0,0
9,-0.076336,1.328244,-1.389313,-0.807617,0.118774,0.562256,0,0,0
12,-0.152672,1.480916,-1.709924,-0.813354,0.11731,0.565308,0,0,0
15,-0.183206,1.51145,-1.832061,-0.811523,0.11853,0.564087,0,0,0
18,-0.305344,1.557252,-2.030534,-0.814209,0.11731,0.565552,0,0,0
21,-0.320611,1.450382,-2.21374,-0.819702,0.118652,0.569458,0,0,0
24,-0.412214,1.435115,-2.381679,-0.815674,0.119263,0.56604,0,0,0
27,-0.564885,1.40458,-2.641221,-0.81958,0.122437,0.569946,0,0,0
30,-0.854962,1.465649,-3.068702,-0.821045,0.122681,0.572144,0,0,0
33,-0.870229,1.465649,-3.312977,-0.81897,0.123779,0.568115,0,0,0
36,-1.465649,1.419847,-3.679389,-0.818604,0.123291,0.56665,0,0,0
39,-1.587786,1.40458,-4.015267,-0.815796,0.125732,0.568359,0,0,0
42,-1.847328,1.450382,-4.10687,-0.815552,0.122803,0.568726,0,0,0
45,-2.167939,1.480916,-4.320611,-0.814209,0.119873,0.566162,0,0,0
48,-1.984733,1.572519,-4.519084,-0.807983,0.115967,0.567871,0,0,0
51,-2.030534,1.618321,-4.549618,-0.8125,0.115723,0.566162,0,0,0
54,-1.954198,1.694656,-4.717557,-0.810425,0.11731,0.564941,0,0,0
57,-2.167939,1.862595,-4.931298,-0.810059,0.122314,0.561279,0,0,0
60,-2.427481,2.122137,-5.206107,-0.807373,0.120117,0.560181,0,0,0
63,-2.564885,2.259542,-5.389313,-0.809814,0.118286,0.560425,0,0,0
66,-2.458015,2.351145,-5.541985,-0.805298,0.11853,0.564697,0,0,0
69,-2.610687,2.503817,-5.89313,-0.806396,0.120361,0.564941,0,0,0
72,-2.854962,2.732824,-6.015267,-0.80896,0.120361,0.565063,0,0,0
75,-2.961832,2.854962,-6.351145,-0.808594,0.119385,0.566406,0,0,0
78,-3.068702,3.007634,-6.564885,-0.812988,0.11792,0.564209,0,0,0
81,-3.328244,3.114504,-6.564885,-0.814575,0.113403,0.569824,0,0,0
84,-3.419847,3.206107,-6.687023,-0.816406,0.111572,0.573486,0,0,0
87,-3.358779,3.312977,-6.839695,-0.813477,0.115845,0.568359,0,0,0
90,-3.160305,3.40458,-7.068702,-0.815918,0.11499,0.570801,0,0,0
93,-3.450382,3.328244,-7.221374,-0.817871,0.115601,0.572021,0,0,0
96,-3.374046,3.374046,-7.145038,-0.823242,0.113281,0.568604,0,0,0
99,-3.236641,3.221374,-7.19084,-0.817871,0.109009,0.569336,0,0,0
102,-3.083969,3.038168,-7.267176,-0.81897,0.110229,0.564697,0,0,0
105,-2.992366,3.022901,-7.236641,-0.81958,0.112061,0.566772,0,0,0
108,-2.854962,2.946565,-7.358779,-0.819092,0.110962,0.563721,0,0,0
111,-3.114504,2.732824,-7.175573,-0.818604,0.114868,0.5625,0,0,0
114,-2.977099,2.473282,-7.343511,-0.815674,0.111694,0.56189,0,0,0
117,-2.946565,2.167939,-7.328244,-0.817383,0.108521,0.555786,0,0,0
120,-2.916031,2.274809,-7.236641,-0.816895,0.105835,0.557129,0,0,0
123,-2.748092,2.030534,-7.038168,-0.81543,0.101807,0.561035,0,0,0
126,-2.458015,1.969466,-6.992366,-0.818848,0.101929,0.558228,0,0,0
129,-2.061069,1.694656,-6.70229,-0.817627,0.101807,0.556274,0,0,0
132,-1.877863,1.664122,-6.519084,-0.822754,0.102051,0.557373,0,0,0
135,-1.557252,1.389313,-6.381679,-0.821899,0.101196,0.560181,0,0,0
138,-1.251908,1.206107,-6.167939,-0.821411,0.099121,0.560669,0,0,0
141,-1.099237,0.916031,-6.015267,-0.824097,0.105103,0.558105,0,0,0
144,-0.793893,0.671756,-5.938931,-0.825439,0.105103,0.561279,0,0,0
147,-0.564885,0.351145,-5.679389,-0.82312,0.105591,0.56311,0,0,0
150,-0.396947,0.137405,-5.694656,-0.824219,0.106445,0.562256,0,0,0
153,-0.244275,0.045802,-5.541985,-0.821167,0.105225,0.562988,0,0,0
156,-0.351145,-0.244275,-5.633588,-0.821899,0.109131,0.565796,0,0,0
159,-0.290076,-0.290076,-5.78626,-0.819214,0.11145,0.560181,0,0,0
162,-0.671756,-0.473282,-6.015267,-0.819824,0.109863,0.563232,0,0,0
165,-0.824427,-0.473282,-6.366412,-0.817627,0.117798,0.562378,0,0,0
168,-1.282443,-0.564885,-6.748092,-0.81665,0.119751,0.562378,0,0,0
171,-1.679389,-0.687023,-7.19084,-0.818237,0.116821,0.560059,0,0,0
174,-2.137405,-0.70229,-7.312977,-0.811401,0.119263,0.562622,0,0,0
177,-2.335878,-0.748092,-7.740458,-0.814209,0.114258,0.55957,0,0,0
180,-2.854962,-0.748092,-7.89313,-0.81311,0.114502,0.558838,0,0,0
183,-3.145038,-0.824427,-7.862595,-0.812622,0.108887,0.559692,0,0,0
186,-3.282443,-0.610687,-8,-0.811523,0.104736,0.562256,0,0,0
189,-3.29771,-0.473282,-7.877863,-0.811523,0.102539,0.564087,0,0,0
192,-3.251908,-0.396947,-7.587786,-0.812866,0.096558,0.564819,0,0,0
195,-2.931298,-0.351145,-7.114504,-0.811157,0.095459,0.566895,0,0,0
198,-2.48855,-0.061069,-6.732824,-0.815063,0.09375,0.570068,0,0,0
201,-2.274809,0.030534,-6.061069,-0.815918,0.093384,0.570801,0,0,0
204,-1.832061,0.274809,-5.435115,-0.817261,0.091064,0.57019,0,0,0
207,-1.450382,0.580153,-4.824427,-0.817139,0.091064,0.567993,0,0,0
210,-1.160305,0.793893,-4.061069,-0.820435,0.089966,0.571533,0,0,0
213,-0.564885,0.946565,-3.328244,-0.817627,0.088867,0.571167,0,0,0
216,-0.290076,1.160305,-2.48855,-0.820435,0.090576,0.570435,0,0,0
219,0.061069,1.29771,-1.954198,-0.818604,0.087769,0.572632,0,0,0
222,0.580153,1.526718,-1.068702,-0.821655,0.088867,0.568726,0,0,0
225,0.961832,1.664122,-0.076336,-0.824951,0.087524,0.568359,0,0,0
228,1.435115,1.709924,0.80916,-0.821533,0.083374,0.569702,0,0,0
231,2.030534,1.755725,1.862595,-0.820435,0.081665,0.568481,0,0,0
234,2.519084,1.78626,3.282443,-0.820557,0.074341,0.564453,0,0,0
237,3.465649,1.923664,4.473282,-0.819214,0.078247,0.564331,0,0,0
240,4.152672,1.832061,5.89313,-0.81958,0.078003,0.563477,0,0,0
243,4.564885,1.938931,7.267176,-0.820435,0.077759,0.564209,0,0,0
246,5.328244,1.908397,8.625954,-0.822754,0.077393,0.556152,0,0,0
249,5.862595,1.862595,10,-0.823486,0.07666,0.559937,0,0,0
252,6.534351,1.770992,11.770992,-0.823975,0.074219,0.556519,0,0,0
255,7.236641,1.664122,13.175573,-0.82666,0.071289,0.560425,0,0,0
2,7.740458,1.450382,14.916031,-0.828491,0.06897,0.559448,0,0,0
5,8.748092,1.29771,16.839695,-0.829712,0.062988,0.562622,0,0,0
8,10.045802,1.114504,18.946565,-0.835205,0.057251,0.558716,0,0,0
11,11.145038,0.839695,21.206107,-0.834961,0.050537,0.560669,0,0,0
14,12.641221,0.290076,24.076336,-0.842773,0.048462,0.56189,0,0,0
17,14.70229,0.152672,26.839695,-0.841675,0.038574,0.563599,0,0,0
20,16.610687,-0.290076,29.694656,-0.836304,0.037964,0.562012,0,0,0
23,18.549618,-0.671756,33.114504,-0.8396,0.033936,0.563477,0,0,0
26,20.854962,-0.763359,36.229008,-0.836304,0.035278,0.567749,0,0,0
29,23.038168,-1.114504,39.175573,-0.835815,0.037842,0.561035,0,0,0
32,25.083969,-1.206107,42.70229,-0.835205,0.038452,0.561523,0,0,0
35,27.343511,-1.877863,45.282443,-0.837769,0.047241,0.559448,0,0,0
38,29.251908,-2.137405,48.10687,-0.839722,0.054565,0.562134,0,0,0
41,30.580153,-2.641221,50.916031,-0.834351,0.05835,0.558228,0,0,0
44,32.244275,-3.160305,53.389313,-0.835327,0.063477,0.554321,0,0,0
47,33.603053,-3.725191,55.908397,-0.838379,0.062256,0.55481,0,0,0
50,34.824427,-4.229008,58.870229,-0.841064,0.065796,0.552856,0,0,0
53,36.473282,-4.931298,61.389313,-0.834229,0.066895,0.555664,0,0,0
56,37.832061,-5.664122,64.198473,-0.834229,0.064697,0.552246,0,0,0
59,39.236641,-6.091603,67.648855,-0.837524,0.068604,0.556152,0,0,0
62,40.961832,-6.931298,70.458015,-0.837769,0.065308,0.55542,0,0,0
65,42.732824,-7.664122,73.740458,-0.839233,0.060791,0.553345,0,0,0
68,44.442748,-8.48855,77.862595,-0.840088,0.052124,0.556396,0,0,0
71,47.068702,-9.374046,80.80916,-0.839233,0.051025,0.559082,0,0,0
74,49.832061,-10,83.572519,-0.843384,0.056885,0.563232,0,0,0
77,52.412214,-10.885496,86.152672,-0.841553,0.075684,0.55957,0,0,0
80,54.045802,-11.725191,87.832061,-0.838745,0.09729,0.551636,0,0,0
83,54.992366,-12.412214,88.992366,-0.837158,0.108032,0.558105,0,0,0
86,55.374046,-13.053435,89.740458,-0.830811,0.109009,0.555298,0,0,0
89,56.030534,-13.679389,90.244275,-0.830444,0.113892,0.552856,0,0,0
92,57.358779,-15.160305,90.900763,-0.832397,0.103394,0.555542,0,0,0
95,58.351145,-15.648855,90.167939,-0.824585,0.101074,0.553101,0,0,0
98,59.618321,-16.396947,90.198473,-0.832031,0.10083,0.557251,0,0,0
101,60.70229,-17.328244,90.229008,-0.832642,0.09082,0.559204,0,0,0
104,61.78626,-18.21374,89.160305,-0.827271,0.081543,0.562012,0,0,0
107,62.870229,-18.717557,87.78626,-0.830688,0.082153,0.553345,0,0,0
110,62.320611,-18.870229,85.725191,-0.827271,0.047485,0.559814,0,0,0
113,61.908397,-18.839695,82.503817,-0.83252,0.013306,0.56665,0,0,0
116,60.290076,-18.427481,76.351145,-0.828125,-0.035034,0.560181,0,0,0
119,54.564885,-17.083969,68.534351,-0.827515,-0.10437,0.548218,0,0,0
122,43.770992,-14.122137,56.763359,-0.843628,-0.197266,0.544556,0,0,0
125,30.259542,-9.816794,41.374046,-0.855835,-0.310547,0.561523,0,0,0
128,13.40458,-4.458015,27.603053,-0.885254,-0.427612,0.584106,0,0,0
131,4.274809,-0.870229,17.160305,-0.911133,-0.524658,0.612061,0,0,0
134,0.290076,2.274809,9.618321,-0.923096,-0.632812,0.653564,0,0,0
137,4.70229,4.335878,4.473282,-0.932739,-0.683716,0.66687,0,0,0
140,14.610687,4.183206,2.946565,-0.924561,-0.727051,0.68811,0,0,0
143,22.70229,3.89313,-2.48855,-0.917236,-0.75708,0.686401,0,0,0
146,29.450382,2.778626,-14.335878,-0.946777,-0.832031,0.667847,0,0,0
149,35.618321,1.832061,-20.061069,-0.942017,-0.767212,0.693115,0,0,0
152,39.328244,-0.259542,-24.656489,-0.924438,-0.736816,0.686157,0,0,0
155,30.244275,-1.068702,-41.175573,-0.932373,-0.850098,0.640259,0,0,0
158,25.557252,-0.732824,-54.564885,-0.961426,-0.786743,0.713379,0,0,0
161,28.442748,-3.938931,-57.206107,-0.948608,-0.750366,0.695923,0,0,0
164,45.847328,-5.51145,-52.137405,-0.911133,-0.571411,0.686279,0,0,0
167,58.076336,-9.068702,-50.305344,-0.896362,-0.624512,0.645142,0,0,0
170,62.946565,-9.648855,-60.48855,-0.921143,-0.496216,0.598022,0,0,0
173,74.122137,-12.503817,-53.450382,-0.92749,-0.309937,0.628296,0,0,0
176,71.618321,-15.236641,-55.083969,-0.90979,-0.304932,0.546143,0,0,0
179,72,-13.038168,-51.770992,-0.891968,-0.110962,0.578003,0,0,0
182,73.603053,-14.900763,-53.114504,-0.892456,-0.230225,0.526123,0,0,0
185,60.427481,-12.839695,-66.732824,-0.932861,-0.144775,0.452881,0,0,0
188,69.633588,-11.374046,-53.450382,-0.885132,-0.045654,0.614258,0,0,0
191,60.503817,-11.236641,-60.992366,-0.887695,-0.144409,0.476562,0,0,0
194,61.78626,-10.396947,-61.832061,-0.931641,-0.118164,0.540649,0,0,0
197,61.496183,-11.068702,-59.053435,-0.932373,-0.143311,0.480957,0,0,0
200,57.923664,-13.923664,-62.793893,-0.919922,-0.308716,0.536743,0,0,0
203,60.946565,-8.259542,-60.274809,-0.926758,-0.10376,0.57312,0,0,0
206,71.603053,-10.916031,-52.610687,-0.914307,-0.178711,0.510498,0,0,0
209,73.557252,-9.847328,-54.946565,-0.910522,-0.22168,0.501099,0,0,0
212,76.458015,-7.022901,-52.748092,-0.911011,-0.081177,0.573608,0,0,0
215,71.29771,-8.839695,-54.687023,-0.905518,-0.197754,0.492554,0,0,0
218,71.526718,-6.412214,-56.21374,-0.948242,-0.147949,0.523315,0,0,0
221,86.091603,-8.580153,-41.145038,-0.898193,-0.065308,0.552979,0,0,0
224,90.030534,-7.633588,-37.770992,-0.854858,-0.01355,0.469482,0,0,0
227,91.770992,-6.671756,-41.40458,-0.898682,-0.06958,0.546997,0,0,0
230,88.21374,-5.770992,-41.618321,-0.880371,-0.02832,0.515625,0,0,0
233,81.251908,-7.038168,-48.427481,-0.89978,-0.097412,0.437378,0,0,0
236,67.053435,-7.664122,-54.793893,-0.880981,-0.265747,0.548462,0,0,0
239,72.748092,-1.083969,-45.78626,-0.891357,0.020996,0.631836,0,0,0
242,86.641221,-8.48855,-36.061069,-0.853516,-0.164185,0.52832,0,0,0
245,81.633588,-4.839695,-53.312977,-0.878906,-0.30481,0.505981,0,0,0
248,81.847328,-6.748092,-49.40458,-0.86792,-0.169067,0.628418,0,0,0
251,73.694656,-6.59542,-50.549618,-0.907104,-0.151123,0.582397,0,0,0
254,90.564885,-10.045802,-40.091603,-0.845337,-0.133179,0.628906,0,0,0
1,89.312977,-8.870229,-46.152672,-0.86731,-0.171387,0.5448,0,0,0
4,95.358779,-10.961832,-43.954198,-0.859741,-0.160889,0.636841,0,0,0
7,83.725191,-9.175573,-54.992366,-0.877197,-0.177124,0.559448,0,0,0
10,86.48855,-12.320611,-50.030534,-0.869019,-0.102051,0.600342,0,0,0
13,84.427481,-14.854962,-52.549618,-0.862549,-0.320312,0.567383,0,0,0
16,84.854962,-13.725191,-54.442748,-0.832031,-0.10083,0.624878,0,0,0
19,77.740458,-19.694656,-63.358779,-0.891602,-0.469238,0.572144,0,0,0
22,69.267176,-18.931298,-75.374046,-0.911499,-0.364136,0.692871,0,0,0
25,73.312977,-22.396947,-68.10687,-0.866699,-0.278076,0.679199,0,0,0
28,63.89313,-24.70229,-83.816794,-0.891113,-0.469727,0.557983,0,0,0
31,75.89313,-25.877863,-78.900763,-0.878418,-0.333618,0.698853,0,0,0
34,82.961832,-31.877863,-83.160305,-0.880249,-0.508545,0.589233,0,0,0
37,93.709924,-34.10687,-85.160305,-0.895386,-0.442749,0.698364,0,0,0
40,97.343511,-37.053435,-86.748092,-0.880859,-0.391479,0.617188,0,0,0
43,107.312977,-41.40458,-88.48855,-0.896606,-0.414917,0.700439,0,0,0
46,119.832061,-40.946565,-83.312977,-0.894165,-0.197266,0.616089,0,0,0
49,126.687023,-49.725191,-86.244275,-0.868652,-0.491699,0.535156,0,0,0
52,125.358779,-40.717557,-90,-0.897461,-0.024658,0.609131,0,0,0
55,142.656489,-49.236641,-73.053435,-0.884888,-0.037354,0.536865,0,0,0
58,144.48855,-50.519084,-77.480916,-0.862061,-0.056885,0.49646,0,0,0
61,149.664122,-49.114504,-71.832061,-0.845337,0.222778,0.511597,0,0,0
64,159.938931,-46.351145,-55.541985,-0.84314,0.504517,0.505249,0,0,0
67,156.748092,-53.923664,-55.099237,-0.882812,0.219971,0.357056,0,0,0
70,161.419847,-52.244275,-54.854962,-0.807983,0.41394,0.57373,0,0,0
73,157.145038,-45.083969,-47.847328,-0.845337,0.755371,0.464722,0,0,0
76,152.091603,-55.694656,-44.229008,-0.924561,0.424438,0.206055,0,0,0
79,155.465649,-46.10687,-39.633588,-0.833984,0.462158,0.518188,0,0,0
82,138.076336,-47.801527,-51.419847,-0.860962,0.244995,0.393555,0,0,0
85,131.450382,-44.580153,-50.152672,-0.877441,0.412964,0.455811,0,0,0
88,111.526718,-47.633588,-64.259542,-0.908325,0.12085,0.314697,0,0,0
91,100.977099,-48.59542,-77.801527,-0.90564,-0.16687,0.525757,0,0,0
94,95.40458,-44.778626,-88.80916,-0.927124,-0.099854,0.480347,0,0,0
97,96.473282,-48,-86.396947,-0.922974,-0.257568,0.444946,0,0,0
100,114.229008,-46.198473,-82.122137,-0.884155,-0.169312,0.582153,0,0,0
103,116.870229,-43.374046,-93.984733,-0.959839,-0.05127,0.466187,0,0,0
106,137.954198,-48.824427,-74.931298,-0.903687,-0.084717,0.452515,0,0,0
109,155.267176,-47.007634,-68.473282,-0.854492,0.063354,0.531128,0,0,0
112,158.030534,-39.694656,-66.80916,-0.871094,0.370483,0.479248,0,0,0
115,149.89313,-47.526718,-72.656489,-0.958496,0.139771,0.292969,0,0,0
118,143.358779,-46.885496,-76.717557,-0.901733,0.151367,0.42688,0,0,0
121,146.900763,-33.068702,-73.984733,-0.835327,0.499634,0.495361,0,0,0
124,136.152672,-45.282443,-86.442748,-0.900635,0.005493,0.272461,0,0,0
127,122.305344,-37.954198,-100.183206,-0.923218,0.142456,0.560547,0,0,0
130,123.175573,-37.816794,-97.51145,-0.879028,0.149292,0.470581,0,0,0
133,111.908397,-43.908397,-115.954198,-0.939209,-0.209839,0.414795,0,0,0
136,122.839695,-37.557252,-110.671756,-0.887207,0.07605,0.630371,0,0,0
139,119.496183,-44.21374,-120.442748,-0.950806,-0.325806,0.461304,0,0,0
142,120.549618,-42.931298,-128.305344,-0.924316,-0.126221,0.519531,0,0,0
145,118.290076,-43.603053,-136.152672,-0.949219,-0.258301,0.428833,0,0,0
148,132.580153,-44.793893,-131.755725,-0.924072,-0.12854,0.492676,0,0,0
151,145.877863,-48.244275,-126.900763,-0.931152,-0.161743,0.462891,0,0,0
154,151.435115,-43.801527,-131.007634,-0.908447,0.022949,0.473511,0,0,0
157,151.038168,-48.854962,-131.038168,-0.882446,-0.112305,0.474121,0,0,0
160,142.076336,-41.694656,-146.732824,-0.880737,0.23291,0.539673,0,0,0
163,120.763359,-44.885496,-164.717557,-1.005005,-0.104004,0.28186,0,0,0
166,128.916031,-51.541985,-155.862595,-0.911255,-0.145142,0.496704,0,0,0
169,132.824427,-47.587786,-165.40458,-0.849365,-0.014648,0.536621,0,0,0
172,144.061069,-43.954198,-160.152672,-0.898926,0.225342,0.479492,0,0,0
175,153.145038,-50.305344,-161.19084,-0.938232,0.322754,0.302734,0,0,0
178,160.748092,-56.381679,-154.549618,-0.908203,0.232544,0.253418,0,0,0
181,173.664122,-50.274809,-145.328244,-0.861572,0.526245,0.358765,0,0,0
184,173.862595,-52.59542,-145.648855,-0.907715,0.662354,0.214233,0,0,0
187,177.022901,-53.862595,-133.816794,-0.829346,0.545288,0.34436,0,0,0
190,154.10687,-51.755725,-158.122137,-0.864014,0.425415,0.425903,0,0,0
193,108.290076,-55.923664,-189.557252,-0.90686,-0.104736,0.496094,0,0,0
196,88.045802,-48.763359,-202.076336,-0.880127,0.175903,0.653076,0,0,0
199,72.152672,-58.503817,-221.89313,-0.89856,-0.445068,0.516113,0,0,0
202,70.045802,-54.442748,-229.40458,-0.869873,-0.407227,0.706543,0,0,0
205,64.458015,-64.473282,-245.89313,-0.941528,-0.707031,0.529785,0,0,0
208,81.557252,-67.847328,-241.236641,-0.910522,-0.532227,0.675903,0,0,0
211,105.725191,-70.48855,-237.007634,-0.923096,-0.536011,0.599976,0,0,0
214,123.78626,-74.427481,-236.122137,-0.948853,-0.472168,0.486694,0,0,0
217,147.51145,-78.549618,-229.435115,-0.953247,-0.401245,0.490112,0,0,0
220,175.206107,-83.435115,-226.076336,-0.933228,-0.338623,0.449707,0,0,0
223,204.48855,-78.885496,-213.175573,-0.861084,-0.1073,0.608032,0,0,0
226,198.59542,-75.78626,-222.473282,-0.933228,0.078979,0.447754,0,0,0
229,205.526718,-75.832061,-208.70229,-0.961304,0.521729,0.444824,0,0,0
232,203.984733,-82.412214,-198.137405,-0.955078,0.389771,0.25415,0,0,0
235,208.580153,-78.580153,-195.923664,-0.892334,0.559082,0.360596,0,0,0
238,212.732824,-69.236641,-179.633588,-0.817749,0.939209,0.318359,0,0,0
241,210.564885,-71.725191,-170.152672,-0.899658,0.862549,0.39856,0,0,0
244,205.816794,-69.587786,-169.160305,-0.914185,0.964722,0.294434,0,0,0
247,217.572519,-66.534351,-145.587786,-0.854126,1.221802,0.345581,0,0,0
250,232.687023,-55.801527,-119.022901,-0.84729,1.515015,0.263062,0,0,0
253,242.870229,-51.725191,-93.007634,-0.840698,1.612915,0.123535,0,0,0
0,232.732824,-53.755725,-88.732824,-0.824097,1.437012,0.160767,0,0,0
3,204.992366,-43.755725,-93.740458,-0.851318,1.580811,0.272095,0,0,0
6,187.236641,-44.671756,-81.083969,-0.820068,1.561768,0.183716,0,0,0
9,153.679389,-40.656489,-86.854962,-0.850708,1.306152,0.185791,0,0,0
12,159.114504,-38.015267,-70.916031,-0.798828,1.172119,0.380371,0,0,0
15,133.801527,-35.557252,-88.946565,-0.845459,0.921753,0.291626,0,0,0
18,125.740458,-38.961832,-91.862595,-0.839478,0.827393,0.327881,0,0,0
21,119.435115,-36.717557,-90.931298,-0.847412,0.759644,0.32312,0,0,0
24,121.480916,-37.496183,-85.664122,-0.851929,0.737549,0.368896,0,0,0
27,125.435115,-35.29771,-72.076336,-0.820312,0.802979,0.364746,0,0,0
30,125.007634,-35.358779,-74.519084,-0.840088,0.686523,0.407837,0,0,0
33,131.832061,-31.908397,-61.89313,-0.82312,0.888916,0.385742,0,0,0
36,132.824427,-38.183206,-59.312977,-0.831421,0.619385,0.3573,0,0,0
39,133.114504,-31.938931,-59.572519,-0.769165,0.835571,0.38623,0,0,0
42,126.305344,-28.381679,-66.564885,-0.848145,0.983276,0.355225,0,0,0
45,121.312977,-33.603053,-45.19084,-0.782471,0.924927,0.417603,0,0,0
48,116.763359,-27.343511,-46.534351,-0.783936,0.97522,0.41626,0,0,0
51,105.969466,-24.10687,-54.564885,-0.731445,0.934937,0.320557,0,0,0
54,96.290076,-13.236641,-59.343511,-0.760132,1.040771,0.30835,0,0,0
57,95.267176,-11.801527,-49.343511,-0.791138,1.127686,0.330811,0,0,0
60,92.977099,-14.091603,-44.366412,-0.822754,1.137085,0.385376,0,0,0
63,80.442748,-26.351145,-45.572519,-0.87207,1.054443,0.366577,0,0,0
66,82,-26.305344,-29.832061,-0.759155,1.209106,0.345703,0,0,0
69,84.946565,-25.51145,-17.725191,-0.754028,1.149902,0.307861,0,0,0
72,79.267176,-21.664122,-23.709924,-0.78479,1.106079,0.310913,0,0,0
75,77.282443,-17.251908,-13.251908,-0.73999,1.307007,0.322632,0,0,0
78,60.21374,-14.015267,-13.175573,-0.776611,1.153931,0.340942,0,0,0
81,46.610687,-11.633588,-17.603053,-0.808472,1.175171,0.353271,0,0,0
84,46.641221,-12.870229,-4.671756,-0.772827,1.147217,0.375244,0,0,0
87,31.709924,-13.938931,-12.839695,-0.745117,1.002563,0.309326,0,0,0
90,20.687023,-6.198473,-15.40458,-0.751465,1.006592,0.383301,0,0,0
93,17.358779,-6.458015,-13.587786,-0.787354,0.905273,0.377563,0,0,0
96,19.526718,-4.503817,-8.916031,-0.766113,0.916626,0.390381,0,0,0
99,19.541985,-5.099237,-9.114504,-0.795044,0.831909,0.404419,0,0,0
102,14.763359,-9.847328,-11.328244,-0.824829,0.812256,0.44873,0,0,0
105,8.885496,-11.923664,-12.717557,-0.781372,0.836914,0.407349,0,0,0
108,8.519084,-15.450382,-8.59542,-0.792847,0.767212,0.439941,0,0,0
111,2.70229,-15.938931,-11.984733,-0.796753,0.723511,0.439697,0,0,0
114,-0.351145,-20.946565,-14.229008,-0.811646,0.671875,0.426514,0,0,0
117,-2.748092,-18.656489,-19.496183,-0.770386,0.706421,0.443237,0,0,0
120,-9.29771,-18.854962,-24.977099,-0.797119,0.667969,0.459229,0,0,0
123,-13.847328,-16.961832,-25.374046,-0.754272,0.674927,0.450928,0,0,0
126,-18.381679,-20.076336,-28.687023,-0.8125,0.599365,0.46167,0,0,0
129,-21.633588,-22.198473,-34.335878,-0.801025,0.572266,0.479736,0,0,0
132,-25.969466,-23.083969,-41.206107,-0.792358,0.544312,0.483032,0,0,0
135,-30,-30.442748,-43.007634,-0.828857,0.518921,0.501099,0,0,0
138,-32.824427,-34.519084,-49.78626,-0.786011,0.460938,0.480713,0,0,0
141,-35.053435,-38.061069,-55.664122,-0.79834,0.436157,0.496948,0,0,0
144,-38.381679,-41.938931,-63.541985,-0.809326,0.445679,0.516479,0,0,0
147,-43.465649,-46.748092,-69.358779,-0.805054,0.419556,0.525757,0,0,0
150,-48.671756,-48.564885,-77.51145,-0.780151,0.388794,0.531738,0,0,0
153,-54,-49.89313,-88.961832,-0.783081,0.376831,0.537842,0,0,0
156,-61.251908,-53.954198,-97.282443,-0.793091,0.371216,0.550903,0,0,0
159,-66.870229,-55.175573,-104.274809,-0.771973,0.328003,0.550781,0,0,0
162,-72.396947,-54.274809,-114.748092,-0.756714,0.301147,0.536377,0,0,0
165,-78.641221,-53.633588,-122.549618,-0.766479,0.297852,0.54895,0,0,0
168,-84.061069,-53.374046,-128.931298,-0.773804,0.289551,0.553955,0,0,0
171,-89.053435,-54.885496,-136.656489,-0.798096,0.275269,0.5625,0,0,0
174,-94.473282,-58.396947,-142.198473,-0.799805,0.275757,0.55127,0,0,0
177,-99.007634,-61.206107,-147.358779,-0.787598,0.265625,0.545288,0,0,0
180,-103.877863,-63.282443,-153.389313,-0.794434,0.271851,0.55542,0,0,0
183,-109.648855,-65.78626,-157.29771,-0.786621,0.265259,0.551636,0,0,0
186,-115.221374,-68.870229,-161.816794,-0.804443,0.265381,0.559326,0,0,0
189,-120.793893,-71.664122,-165.755725,-0.791626,0.266846,0.558105,0,0,0
192,-126.961832,-74.870229,-170.671756,-0.789795,0.265869,0.565674,0,0,0
195,-132.961832,-76.198473,-175.099237,-0.768555,0.270386,0.554321,0,0,0
198,-139.618321,-76.21374,-180.824427,-0.766968,0.290771,0.564331,0,0,0
201,-148.290076,-76.671756,-187.053435,-0.763062,0.319458,0.558716,0,0,0
204,-160.412214,-76.625954,-192.534351,-0.764648,0.365845,0.557251,0,0,0
207,-173.572519,-77.022901,-198.183206,-0.770508,0.386963,0.56958,0,0,0
210,-188.137405,-77.78626,-204.992366,-0.77002,0.413696,0.556152,0,0,0
213,-207.29771,-77.038168,-210.946565,-0.754272,0.438843,0.547241,0,0,0
216,-225.801527,-76.793893,-216.763359,-0.79126,0.48291,0.561768,0,0,0
219,-245.145038,-76.10687,-222.091603,-0.777344,0.48999,0.54834,0,0,0
222,-269.526718,-75.206107,-226.320611,-0.775024,0.47583,0.557007,0,0,0
225,-291.206107,-71.557252,-233.389313,-0.764038,0.456787,0.535767,0,0,0
228,-308.732824,-67.923664,-239.053435,-0.775146,0.448364,0.564087,0,0,0
231,-326.961832,-65.19084,-242.335878,-0.748291,0.335205,0.593262,0,0,0
234,-336.335878,-60.183206,-246.290076,-0.749512,0.292725,0.597046,0,0,0
237,-338.961832,-52.580153,-243.969466,-0.724121,0.181519,0.617798,0,0,0
240,-329.343511,-43.068702,-240.015267,-0.746582,0.08606,0.672607,0,0,0
243,-290.442748,-33.114504,-232.656489,-0.963623,0.489258,0.561523,0,0,0
246,-241.312977,-19.603053,-190.503817,-0.976562,0.672607,0.543213,0,0,0
249,-170.732824,-8.824427,-141.755725,-1.014404,0.7677,0.642578,0,0,0
252,-110.137405,-5.221374,-100.061069,-1.04187,0.829956,0.706177,0,0,0
255,-71.877863,-3.78626,-69.847328,-1.026611,0.974854,0.639526,0,0,0
2,-48.70229,-1.465649,-46.671756,-0.979614,1.155884,0.681519,0,0,0
5,-50.778626,2.458015,-31.129771,-1.018555,1.262451,0.584595,0,0,0
8,-55.816794,4.473282,-9.251908,-0.992065,1.299561,0.623291,0,0,0
11,-66.687023,11.587786,5.114504,-0.976685,1.284302,0.611816,0,0,0
14,-65.801527,13.694656,22.305344,-0.994507,1.168579,0.646362,0,0,0
17,-68.610687,12.732824,28.564885,-0.928223,0.936279,0.616211,0,0,0
20,-81.557252,20.366412,34.137405,-0.950684,0.967041,0.578735,0,0,0
23,-79.114504,17.572519,55.053435,-0.956665,0.801758,0.618164,0,0,0
26,-78.320611,19.664122,63.450382,-0.896729,0.651123,0.626465,0,0,0
29,-85.496183,17.022901,67.480916,-0.850342,0.506836,0.594238,0,0,0
32,-91.435115,23.282443,67.541985,-0.883545,0.461182,0.593018,0,0,0
35,-90.992366,18.564885,74.564885,-0.88623,0.25708,0.53418,0,0,0
38,-88.061069,25.160305,83.419847,-0.886353,0.319458,0.598877,0,0,0
41,-83.053435,21.236641,83.206107,-0.813477,0.081787,0.554565,0,0,0
44,-96.076336,25.694656,69.160305,-0.86377,0.046387,0.473633,0,0,0
47,-86.122137,27.480916,83.450382,-0.825562,0.126709,0.65918,0,0,0
50,-95.679389,29.419847,71.312977,-0.92627,0.105591,0.444946,0,0,0
53,-85.389313,24.091603,84.80916,-0.871948,0.088013,0.556885,0,0,0
56,-75.801527,27.587786,87.496183,-0.828613,0.015991,0.603149,0,0,0
59,-68.198473,28.534351,86.732824,-0.845703,0.055054,0.609985,0,0,0
62,-65.312977,32.076336,92,-0.843262,0.256348,0.631592,0,0,0
65,-60.931298,34.48855,101.847328,-0.896973,0.372192,0.552979,0,0,0
68,-69.541985,28.900763,87.648855,-0.870972,0.200562,0.396362,0,0,0
71,-74.076336,31.389313,92.534351,-0.828003,0.20752,0.666992,0,0,0
74,-74.10687,35.480916,103.206107,-0.855225,0.36145,0.624268,0,0,0
77,-71.954198,32.320611,99.282443,-0.835327,0.164185,0.564209,0,0,0
80,-73.51145,36.290076,97.694656,-0.905884,0.352783,0.601685,0,0,0
83,-60.717557,31.755725,114.748092,-0.843628,0.25415,0.558228,0,0,0
86,-51.954198,35.694656,120.061069,-0.877808,0.438599,0.60144,0,0,0
89,-57.450382,29.129771,115.465649,-0.835327,0.187622,0.610718,0,0,0
92,-73.587786,36.091603,110.503817,-0.846924,0.467407,0.541016,0,0,0
95,-84.412214,26.641221,111.587786,-0.815552,0.109741,0.602417,0,0,0
98,-100.748092,34.625954,97.435115,-0.835449,0.287476,0.544312,0,0,0
101,-99.328244,29.435115,110.259542,-0.873535,0.150635,0.582397,0,0,0
104,-86.946565,32.396947,118.503817,-0.846313,0.211426,0.628052,0,0,0
107,-85.251908,25.877863,108.167939,-0.831299,0.01062,0.383423,0,0,0
110,-92.885496,32.183206,100.48855,-0.860718,0.113403,0.501953,0,0,0
113,-71.709924,31.114504,126.030534,-0.891846,0.381592,0.723389,0,0,0
116,-71.083969,24.152672,122.015267,-0.907349,0.265381,0.396118,0,0,0
119,-60.854962,21.160305,133.725191,-0.898926,0.40564,0.605713,0,0,0
122,-65.053435,23.664122,129.709924,-0.957764,0.539062,0.377441,0,0,0
125,-53.572519,19.450382,147.450382,-0.884399,0.532715,0.627075,0,0,0
128,-66.900763,26.122137,137.206107,-0.910767,0.587524,0.321533,0,0,0
131,-70.076336,17.053435,146.778626,-0.903564,0.473633,0.603882,0,0,0
134,-95.038168,16.274809,128.366412,-0.879639,0.382812,0.423462,0,0,0
137,-111.709924,17.709924,122.061069,-0.896973,0.366943,0.450073,0,0,0
140,-119.832061,15.160305,123.480916,-0.897827,0.230225,0.503906,0,0,0
143,-119.648855,11.206107,118.763359,-0.862793,0.010376,0.522827,0,0,0
146,-120.381679,13.877863,112.717557,-0.886963,0.056152,0.537842,0,0,0
149,-114.580153,10.351145,114.916031,-0.878296,0.029297,0.524292,0,0,0
152,-113.465649,6.519084,109.114504,-0.89917,0.03772,0.419312,0,0,0
155,-114.625954,4.519084,106.274809,-0.888794,-0.003418,0.387939,0,0,0
158,-113.78626,-1.282443,106.244275,-0.879761,-0.12207,0.455933,0,0,0
161,-120.244275,1.145038,98.137405,-0.883179,0.040527,0.487915,0,0,0
164,-122.366412,-2.70229,93.541985,-0.891846,-0.117065,0.434326,0,0,0
167,-124.229008,-3.129771,91.740458,-0.870728,-0.011597,0.483276,0,0,0
170,-129.603053,-5.709924,83.40458,-0.890259,-0.185425,0.413208,0,0,0
173,-128.381679,-3.450382,81.343511,-0.854736,-0.070679,0.606567,0,0,0
176,-129.083969,-4.656489,79.923664,-0.889893,-0.014282,0.520264,0,0,0
179,-129.343511,-4.167939,76.458015,-0.915894,0.131714,0.449707,0,0,0
182,-120.305344,-9.083969,80.091603,-0.849854,-0.06543,0.533936,0,0,0
185,-121.206107,-5.862595,77.541985,-0.881714,0.063477,0.581055,0,0,0
188,-116.763359,-5.862595,85.740458,-0.894775,0.179565,0.511108,0,0,0
191,-115.251908,-5.832061,89.022901,-0.897217,0.1604,0.494751,0,0,0
194,-119.648855,-8.717557,82.870229,-0.906616,0.129517,0.471558,0,0,0
197,-120.534351,-5.603053,87.862595,-0.921143,0.238403,0.52124,0,0,0
200,-120.671756,-5.389313,91.175573,-0.890625,0.218018,0.514771,0,0,0
203,-127.923664,-2.015267,88.320611,-0.916626,0.324097,0.447021,0,0,0
206,-130.839695,-4.48855,89.251908,-0.935669,0.221924,0.437134,0,0,0
209,-130.473282,-5.068702,95.022901,-0.929565,0.253784,0.491699,0,0,0
212,-134.351145,-6.778626,92.335878,-0.918701,0.144653,0.416748,0,0,0
215,-136.198473,-6.641221,95.694656,-0.918823,0.147827,0.474731,0,0,0
218,-136.10687,-5.267176,102.671756,-0.932983,0.273438,0.473511,0,0,0
221,-134.977099,-2.580153,107.312977,-0.934937,0.237671,0.407227,0,0,0
224,-126.534351,-4.137405,118.503817,-0.923828,0.220093,0.501221,0,0,0
227,-127.541985,-2.687023,115.938931,-0.907837,0.185425,0.504517,0,0,0
230,-132.21374,-0.366412,119.541985,-0.947021,0.341431,0.453491,0,0,0
233,-134.625954,-2.824427,124.030534,-0.901367,0.184692,0.512695,0,0,0
236,-152.656489,-1.572519,108.48855,-0.911499,0.049072,0.442627,0,0,0
239,-157.847328,-4.80916,113.633588,-0.928711,0.036499,0.500977,0,0,0
242,-159.374046,-0.625954,115.633588,-0.884521,-0.076904,0.549438,0,0,0
245,-152.442748,4.519084,121.251908,-0.976685,0.1604,0.572144,0,0,0
248,-145.312977,-3.145038,122.061069,-0.865234,-0.122559,0.283081,0,0,0
251,-147.587786,-3.358779,114.366412,-0.91394,-0.135132,0.459229,0,0,0
254,-149.267176,-0.412214,117.664122,-0.876099,0.046387,0.566284,0,0,0
1,-147.312977,2.778626,128.625954,-0.963379,0.263306,0.372559,0,0,0
4,-136.992366,-7.389313,132.473282,-0.911499,0.08667,0.399414,0,0,0
7,-138.381679,-1.648855,130.137405,-0.922119,0.274048,0.507935,0,0,0
10,-146.946565,-11.51145,123.083969,-0.866211,-0.072144,0.391357,0,0,0
13,-152.580153,0.305344,132.763359,-0.923828,0.39856,0.666748,0,0,0
16,-154.687023,-7.328244,138.916031,-0.844849,0.145996,0.51709,0,0,0
19,-162.564885,-2,132.671756,-0.941284,0.331909,0.411621,0,0,0
22,-162.732824,-13.038168,134.396947,-0.877686,0.098877,0.343018,0,0,0
25,-171.083969,-8.503817,135.114504,-0.872559,0.164795,0.587524,0,0,0
28,-175.755725,-12.259542,134.687023,-0.898315,0.144653,0.560669,0,0,0
31,-185.679389,-12.854962,131.267176,-0.931152,0.202759,0.404419,0,0,0
34,-189.862595,-20.183206,132,-0.86084,-0.104736,0.406372,0,0,0
37,-198.335878,-11.19084,126.564885,-0.829102,-0.027466,0.586304,0,0,0
40,-200.80916,-15.725191,125.480916,-0.980347,-0.133545,0.552124,0,0,0
43,-201.923664,-24.641221,126.717557,-0.934326,-0.046143,0.406372,0,0,0
46,-190,-19.954198,138.351145,-0.825317,-0.093872,0.413696,0,0,0
49,-189.160305,-13.328244,131.267176,-0.832764,-0.259399,0.314331,0,0,0
52,-198.076336,-7.083969,125.526718,-0.946655,-0.066406,0.435425,0,0,0
55,-194.244275,-10.610687,133.984733,-0.860474,-0.119141,0.526978,0,0,0
58,-196.519084,-7.923664,131.053435,-0.902222,-0.097046,0.524536,0,0,0
61,-196.824427,-10.732824,131.938931,-0.906738,-0.022339,0.447754,0,0,0
64,-200.351145,-8.290076,129.175573,-0.882202,0.002563,0.425903,0,0,0
67,-191.89313,-13.938931,140.076336,-0.906128,-0.005249,0.652832,0,0,0
70,-198.641221,-10.122137,132.229008,-0.927612,0.054565,0.415894,0,0,0
73,-192.946565,-10.320611,139.221374,-0.928345,0.087402,0.52063,0,0,0
76,-203.89313,-8.687023,134.961832,-0.94873,0.045776,0.340942,0,0,0
79,-196.977099,-13.221374,147.083969,-0.902832,-0.075073,0.501221,0,0,0
82,-196.59542,-5.496183,151.129771,-0.970703,0.210083,0.567871,0,0,0
85,-193.984733,-12.687023,152.839695,-0.937256,0.020264,0.380005,0,0,0
88,-193.801527,-10.122137,153.755725,-0.985962,0.212036,0.411865,0,0,0
91,-205.465649,-17.114504,146.259542,-0.942627,-0.111328,0.227539,0,0,0
94,-208.625954,-9.007634,156.244275,-0.881226,-0.01062,0.501099,0,0,0
97,-207.007634,-3.541985,153.664122,-0.981934,-0.0354,0.350708,0,0,0
100,-201.419847,-7.29771,161.221374,-0.971069,-0.032593,0.402466,0,0,0
103,-205.664122,-4.885496,155.557252,-0.918091,-0.115234,0.332397,0,0,0
106,-213.145038,-4.274809,158.854962,-0.984863,-0.031128,0.354004,0,0,0
109,-220.015267,-3.541985,159.603053,-1.017212,-0.126587,0.348145,0,0,0
112,-222.412214,0.610687,166.244275,-0.914917,-0.130737,0.377563,0,0,0
115,-228.198473,3.343511,155.175573,-0.944092,-0.450317,0.318359,0,0,0
118,-227.755725,7.343511,160.458015,-0.999756,-0.261475,0.460327,0,0,0
121,-220.946565,6.656489,166.900763,-0.940674,-0.425171,0.250488,0,0,0
124,-220.625954,4.671756,160.320611,-0.91626,-0.644409,0.412231,0,0,0
127,-220.045802,9.770992,159.145038,-0.892822,-0.503784,0.474976,0,0,0
130,-226.473282,6.580153,151.435115,-0.882935,-0.825562,0.271973,0,0,0
133,-224.152672,11.587786,151.175573,-0.897461,-0.789062,0.407349,0,0,0
136,-221.648855,8.946565,147.068702,-0.908325,-0.994263,0.368774,0,0,0
139,-218.152672,16.412214,145.450382,-0.927612,-0.79248,0.333008,0,0,0
142,-197.007634,14.80916,154.641221,-0.874878,-0.859009,0.396851,0,0,0
145,-186.366412,12.503817,150.748092,-0.83252,-1.005615,0.371582,0,0,0
148,-186.473282,18.244275,144.80916,-0.877075,-0.805298,0.508789,0,0,0
151,-186.152672,17.816794,139.755725,-0.869751,-0.84729,0.318604,0,0,0
154,-186.931298,14.076336,135.358779,-0.856934,-0.994385,0.326416,0,0,0
157,-190.030534,21.587786,129.145038,-0.855957,-0.951782,0.427734,0,0,0
160,-180.21374,22.519084,130.946565,-0.842285,-0.951172,0.368408,0,0,0
163,-186,19.480916,110.564885,-0.83728,-1.19104,0.195557,0,0,0
166,-184.137405,25.129771,112.549618,-0.891113,-0.928345,0.514771,0,0,0
169,-170.641221,20.290076,116.748092,-0.82959,-1.128906,0.333008,0,0,0
172,-156.473282,22.641221,121.954198,-0.842896,-0.838013,0.555786,0,0,0
175,-157.114504,25.816794,110.687023,-0.887207,-0.813965,0.322388,0,0,0
178,-148.732824,16.931298,118.244275,-0.854004,-0.954102,0.343262,0,0,0
181,-141.618321,17.480916,118.763359,-0.896729,-0.816528,0.445068,0,0,0
184,-133.587786,19.725191,126.091603,-0.876709,-0.66687,0.471069,0,0,0
187,-133.083969,19.908397,115.755725,-0.842163,-0.792236,0.410767,0,0,0
190,-134.80916,17.908397,113.541985,-0.876343,-0.810303,0.372437,0,0,0
193,-137.328244,19.725191,112.320611,-0.901001,-0.858154,0.299927,0,0,0
196,-128,15.847328,120.396947,-0.857056,-1.030518,0.414551,0,0,0
199,-123.022901,22.427481,117.068702,-0.88269,-0.791382,0.49939,0,0,0
202,-113.89313,17.496183,121.145038,-0.8479,-0.956421,0.398438,0,0,0
205,-115.664122,18.259542,110.229008,-0.843628,-1.024536,0.376709,0,0,0
208,-111.572519,21.038168,112.167939,-0.82959,-0.941895,0.479126,0,0,0
211,-108.015267,17.740458,114.122137,-0.800781,-1.067017,0.456909,0,0,0
214,-115.175573,22.122137,99.969466,-0.793701,-1.217041,0.392334,0,0,0
217,-109.099237,21.816794,100.793893,-0.847168,-1.193115,0.457153,0,0,0
220,-101.770992,18.167939,97.343511,-0.82251,-1.404297,0.363159,0,0,0
223,-89.450382,17.40458,98.732824,-0.811768,-1.304077,0.485718,0,0,0
226,-80.641221,15.908397,93.969466,-0.811157,-1.426392,0.469116,0,0,0
229,-79.526718,14.961832,81.29771,-0.793823,-1.528931,0.364746,0,0,0
232,-72.320611,14.671756,83.740458,-0.850708,-1.424438,0.501953,0,0,0
235,-64.167939,13.312977,80.167939,-0.799316,-1.515381,0.440552,0,0,0
238,-60.122137,12.748092,71.145038,-0.811035,-1.614624,0.409302,0,0,0
241,-51.007634,14.290076,70.580153,-0.816162,-1.480225,0.469849,0,0,0
244,-46.152672,9.29771,66.366412,-0.843872,-1.587402,0.409302,0,0,0
247,-35.236641,8.427481,65.51145,-0.815308,-1.526367,0.427856,0,0,0
250,-21.221374,3.954198,62.290076,-0.866211,-1.429932,0.475708,0,0,0
253,-11.587786,2.59542,66.778626,-0.789307,-1.398804,0.467651,0,0,0
0,-1.175573,1.343511,64.290076,-0.846191,-1.356934,0.453979,0,0,0
3,6.320611,-4.519084,63.679389,-0.841797,-1.317383,0.475098,0,0,0
6,16.687023,-4.763359,68.412214,-0.845825,-1.142822,0.504639,0,0,0
9,30.824427,-8.427481,77.877863,-0.846558,-1.084473,0.507202,0,0,0
12,49.267176,-9.114504,84.732824,-0.843628,-0.974487,0.51355,0,0,0
15,66.793893,-12.167939,97.007634,-0.90625,-0.710571,0.563599,0,0,0
18,82.442748,-21.465649,118.259542,-0.920654,-0.528076,0.563232,0,0,0
21,96.381679,-23.267176,140.290076,-0.85144,-0.48584,0.551636,0,0,0
24,110.030534,-22.198473,152.59542,-0.874023,-0.41333,0.557495,0,0,0
27,121.251908,-23.969466,164.549618,-0.909058,-0.399292,0.580078,0,0,0
30,132.305344,-28.80916,178.335878,-0.903931,-0.419189,0.562134,0,0,0
33,148.122137,-30.931298,193.19084,-0.859253,-0.500244,0.547241,0,0,0
36,163.938931,-30.396947,206.854962,-0.861328,-0.584106,0.564209,0,0,0
39,181.679389,-33.022901,222.885496,-0.875732,-0.594727,0.553345,0,0,0
42,204.152672,-34.870229,237.541985,-0.877197,-0.601318,0.560303,0,0,0
45,226.259542,-38.167939,254.351145,-0.864868,-0.640991,0.558716,0,0,0
48,253.160305,-40.839695,270.351145,-0.87146,-0.67334,0.55957,0,0,0
51,289.160305,-43.89313,283.343511,-0.861938,-0.65918,0.557617,0,0,0
54,321.648855,-47.19084,294.137405,-0.853027,-0.654175,0.559448,0,0,0
57,355.068702,-51.862595,301.358779,-0.854614,-0.671509,0.540771,0,0,0
60,393.29771,-55.206107,304.687023,-0.871216,-0.580078,0.524658,0,0,0
63,419.282443,-59.51145,311.099237,-0.907227,-0.238647,0.412842,0,0,0
66,419.618321,-62.061069,327.465649,-0.905273,-0.152832,0.319702,0,0,0
69,383.847328,-59.908397,337.51145,-0.849121,-0.518799,0.343628,0,0,0
72,353.572519,-49.129771,326.030534,-0.820312,-0.875244,0.372314,0,0,0
75,334,-27.206107,287.038168,-0.87915,-0.99353,0.392944,0,0,0
78,311.099237,-7.709924,235.496183,-1.001587,-1.0896,0.412231,0,0,0
81,257.374046,11.603053,181.435115,-1.100586,-0.892456,0.517822,0,0,0
84,197.557252,21.465649,133.908397,-1.099243,-0.910645,0.507568,0,0,0
87,130.59542,31.923664,94.900763,-1.106079,-1.0979,0.515869,0,0,0
90,97.129771,35.328244,66.992366,-1.064209,-1.35437,0.630737,0,0,0
93,79.099237,34.763359,38.519084,-1.075562,-1.566406,0.653931,0,0,0
96,94.152672,26.885496,32.427481,-1.064697,-1.616455,0.80603,0,0,0
99,119.862595,19.938931,26.992366,-1.02478,-1.609375,0.812378,0,0,0
102,150.900763,9.816794,23.740458,-0.997437,-1.473877,0.779297,0,0,0
105,176.351145,2.244275,22.610687,-1.033691,-1.197876,0.808838,0,0,0
108,194.519084,-5.389313,26.59542,-0.951172,-0.878662,0.748047,0,0,0
111,194.274809,-10.763359,13.175573,-0.929321,-0.776001,0.622803,0,0,0
114,180.045802,-10.580153,1.389313,-0.953979,-0.439453,0.622559,0,0,0
117,162.458015,-15.877863,-10.061069,-0.948486,-0.403687,0.528931,0,0,0
120,146.458015,-14.763359,-23.923664,-0.949097,-0.318848,0.555664,0,0,0
123,140.793893,-16.030534,-26.900763,-0.932007,-0.284668,0.568726,0,0,0
126,131.618321,-16.274809,-38.687023,-0.954468,-0.419067,0.496094,0,0,0
129,150.320611,-13.053435,-32.564885,-0.928101,-0.016724,0.574829,0,0,0
132,159.78626,-17.251908,-31.679389,-0.941528,-0.2323,0.396118,0,0,0
135,161.129771,-16.045802,-35.694656,-0.944824,-0.0271,0.392456,0,0,0
138,148.442748,-17.740458,-47.328244,-1.031982,-0.19873,0.401367,0,0,0
141,141.435115,-18.10687,-41.557252,-0.997437,-0.042603,0.472656,0,0,0
144,142.671756,-21.969466,-39.664122,-0.996094,-0.326294,0.499268,0,0,0
147,138.854962,-18.824427,-51.007634,-0.995605,-0.280151,0.506592,0,0,0
150,134.320611,-21.526718,-58.870229,-1.054077,-0.366211,0.398193,0,0,0
153,130.259542,-25.053435,-67.969466,-1.052612,-0.706299,0.422729,0,0,0
156,129.78626,-19.984733,-72.21374,-0.994629,-0.64917,0.622314,0,0,0
159,134.320611,-20.961832,-82.977099,-1.066528,-0.748413,0.58374,0,0,0
162,138.244275,-25.78626,-96.534351,-1.146484,-0.844116,0.556641,0,0,0
165,155.145038,-28.045802,-87.603053,-1.006714,-0.779541,0.616821,0,0,0
168,147.51145,-23.496183,-106.900763,-1.075684,-0.721313,0.461792,0,0,0
171,150.458015,-30.030534,-112.030534,-1.088013,-0.857422,0.531982,0,0,0
174,146.21374,-27.465649,-123.160305,-1.055298,-0.8927,0.604492,0,0,0
177,138.656489,-30.366412,-143.099237,-1.065063,-1.140137,0.624634,0,0,0
180,133.755725,-30.656489,-157.022901,-1.112671,-1.156738,0.682861,0,0,0
183,131.770992,-34.442748,-172.687023,-1.124023,-1.351685,0.641479,0,0,0
186,143.343511,-34.030534,-175.435115,-1.145386,-1.077759,0.653076,0,0,0
189,164.152672,-42.274809,-172.717557,-1.095581,-1.265381,0.568481,0,0,0
192,185.633588,-39.694656,-177.603053,-1.039917,-1.122803,0.681152,0,0,0
195,189.328244,-36.076336,-185.496183,-1.105591,-0.591309,0.472778,0,0,0
198,212.961832,-48.015267,-171.068702,-1.096924,-0.725464,0.500854,0,0,0
201,226.824427,-43.358779,-171.328244,-0.999878,-0.310425,0.444214,0,0,0
204,225.419847,-46.167939,-177.221374,-1.049194,-0.314575,0.356323,0,0,0
207,217.038168,-43.755725,-182.061069,-1.045044,-0.000854,0.411133,0,0,0
210,221.129771,-50.045802,-175.236641,-1.050781,-0.186768,0.335938,0,0,0
213,226.030534,-52.519084,-179.587786,-1.034058,-0.284668,0.314941,0,0,0
216,233.709924,-51.160305,-176.80916,-1.01062,0.087769,0.303589,0,0,0
219,233.053435,-58.656489,-178.778626,-1.042969,-0.197021,0.281616,0,0,0
222,221.587786,-56.320611,-184.091603,-1.039062,0.046753,0.332886,0,0,0
225,221.801527,-60.961832,-171.099237,-1.014282,-0.0271,0.328003,0,0,0
228,223.862595,-61.389313,-169.358779,-1.035278,0.168945,0.245483,0,0,0
231,240.290076,-67.221374,-159.022901,-1.046509,0.050537,0.260742,0,0,0
234,242.687023,-69.053435,-162.091603,-1.023926,0.169189,0.218628,0,0,0
237,255.923664,-64.870229,-140.427481,-0.94751,0.62854,0.255371,0,0,0
240,255.89313,-67.435115,-130.778626,-0.950439,0.561523,0.104126,0,0,0
243,243.755725,-63.068702,-127.78626,-0.995361,0.577393,0.228638,0,0,0
246,235.114504,-64.778626,-124.732824,-0.983765,0.566284,0.061279,0,0,0
249,227.969466,-59.847328,-120.274809,-0.944702,0.607788,0.206787,0,0,0
252,207.435115,-62.198473,-139.51145,-0.986572,0.134033,0.159668,0,0,0
255,212.732824,-54.21374,-132.870229,-0.942383,0.510498,0.342041,0,0,0
2,211.068702,-59.465649,-128.381679,-0.965576,0.078735,0.297363,0,0,0
5,197.526718,-58.671756,-148.091603,-1.032349,-0.056274,0.2948,0,0,0
8,199.618321,-61.496183,-153.358779,-1.036987,-0.160767,0.354004,0,0,0
11,213.51145,-63.618321,-142.320611,-0.983887,-0.325806,0.457764,0,0,0
14,221.755725,-58.931298,-147.709924,-1.011963,-0.064331,0.4021,0,0,0
17,242.854962,-69.984733,-135.664122,-1.025757,-0.215576,0.348389,0,0,0
20,259.679389,-64.183206,-118.10687,-0.96814,0.221558,0.366577,0,0,0
23,275.480916,-70.549618,-112.076336,-0.958252,0.122437,0.300659,0,0,0
26,286.824427,-66.21374,-98.122137,-0.958862,0.472656,0.334717,0,0,0
29,276.015267,-72.839695,-107.832061,-1.061523,0.323486,0.165771,0,0,0
32,266.931298,-72.305344,-109.007634,-0.970337,0.512939,0.21228,0,0,0
35,252.442748,-70.763359,-113.923664,-0.988403,0.416504,0.190308,0,0,0
38,245.068702,-64.824427,-113.206107,-0.949219,0.443237,0.275146,0,0,0
41,233.633588,-62.396947,-120.198473,-0.988892,0.407349,0.237061,0,0,0
44,226.229008,-64.458015,-125.541985,-1.032104,0.287231,0.217407,0,0,0
47,234.946565,-64.458015,-120.732824,-1.003296,0.311157,0.189209,0,0,0
50,235.328244,-63.114504,-123.40458,-1.017334,0.057251,0.196533,0,0,0
53,239.374046,-63.221374,-120.396947,-1.045776,0.3125,0.197754,0,0,0
56,259.389313,-64.335878,-106.625954,-0.968384,0.183105,0.243774,0,0,0
59,248.519084,-61.29771,-123.603053,-1.024658,0.126953,0.203247,0,0,0
62,247.618321,-64.381679,-124.549618,-1.009521,0.016968,0.357788,0,0,0
65,228.717557,-61.221374,-134.183206,-1.010254,0.138428,0.290283,0,0,0
68,228.870229,-61.221374,-133.664122,-0.999878,0.177368,0.264771,0,0,0
71,225.160305,-64.21374,-144.793893,-1.00293,-0.191284,0.302979,0,0,0
74,233.954198,-61.022901,-146.854962,-0.980591,-0.078735,0.449463,0,0,0
77,231.435115,-69.480916,-165.908397,-1.063232,-0.531128,0.456543,0,0,0
80,238.335878,-66.580153,-163.938931,-1.036255,-0.148682,0.489014,0,0,0
83,243.343511,-69.603053,-163.29771,-1.002563,-0.000732,0.304932,0,0,0
86,259.541985,-68.198473,-155.725191,-0.945557,0.210205,0.40918,0,0,0
89,256.503817,-75.755725,-172.015267,-1.03418,0.058594,0.285889,0,0,0
92,250.687023,-80.48855,-177.526718,-1.001099,-0.112305,0.332397,0,0,0
95,248.259542,-76,-179.282443,-0.989136,0.248413,0.370239,0,0,0
98,253.89313,-80.458015,-177.755725,-0.947388,0.010864,0.364502,0,0,0
101,247.374046,-80.030534,-201.328244,-1.028198,0.178101,0.28833,0,0,0
104,263.343511,-85.725191,-189.496183,-0.978271,0.019287,0.334351,0,0,0
107,276.519084,-83.923664,-187.709924,-1.00354,0.154419,0.332031,0,0,0
110,284.442748,-86.748092,-185.053435,-1.030518,0.220093,0.287109,0,0,0
113,293.801527,-86.931298,-178.656489,-0.983154,0.352173,0.203491,0,0,0
116,281.740458,-91.038168,-195.862595,-1.065186,0.109619,0.18396,0,0,0
119,262.70229,-96.946565,-219.038168,-1.093018,-0.150146,0.287109,0,0,0
122,236.259542,-102.778626,-254,-1.126465,-0.484741,0.335083,0,0,0
125,245.175573,-107.038168,-243.603053,-1.093628,-0.387695,0.337036,0,0,0
128,260.061069,-104.854962,-239.679389,-1.067017,-0.610962,0.462158,0,0,0
131,256.564885,-108.137405,-266.274809,-1.129883,-0.490234,0.417847,0,0,0
134,285.267176,-112.366412,-248.80916,-1.030762,-0.144287,0.433838,0,0,0
137,292.793893,-118.473282,-254.229008,-1.055176,-0.166382,0.345581,0,0,0
140,302.824427,-120.091603,-248.732824,-1.023071,0.219238,0.296265,0,0,0
143,304.152672,-124.900763,-251.618321,-1.038452,0.215088,0.181641,0,0,0
146,301.648855,-131.603053,-256.015267,-1.032837,0.022461,0.309937,0,0,0
149,290.656489,-129.603053,-271.206107,-1.014404,0.321411,0.216797,0,0,0
152,299.19084,-131.770992,-267.862595,-1.016602,0.245483,0.220093,0,0,0
155,310.687023,-131.068702,-263.877863,-1.033325,0.465942,0.166016,0,0,0
158,314.427481,-134.21374,-264.763359,-1.037598,0.415161,0.063965,0,0,0
161,306.335878,-134.854962,-275.51145,-1.071533,0.400146,0.064941,0,0,0
164,306.351145,-134.824427,-268.48855,-1.047852,0.506714,0.116577,0,0,0
167,303.633588,-131.664122,-261.129771,-1.087891,0.739502,0.02124,0,0,0
170,310.839695,-134.427481,-248.351145,-1.047119,0.704468,0.050903,0,0,0
173,312.458015,-124.152672,-241.725191,-1.012329,0.936646,0.033569,0,0,0
176,320.70229,-121.312977,-225.251908,-0.994019,1.088867,-0.108032,0,0,0
179,326.625954,-115.78626,-212.427481,-0.980225,1.185791,0.00293,0,0,0
182,319.755725,-108.503817,-207.679389,-0.960449,1.41394,-0.15918,0,0,0
185,323.267176,-101.725191,-184.992366,-0.952515,1.700562,-0.180542,0,0,0
188,326.885496,-97.29771,-165.755725,-0.938477,1.782593,-0.251953,0,0,0
191,338.152672,-85.78626,-139.206107,-0.855347,2.164185,-0.410278,0,0,0
194,339.78626,-76.473282,-114.70229,-0.885864,2.330933,-0.328003,0,0,0
197,325.496183,-69.923664,-102.045802,-0.866821,2.314087,-0.22229,0,0,0
200,284.946565,-68.763359,-120.625954,-0.843628,2.104248,-0.269165,0,0,0
203,254.427481,-51.465649,-112.320611,-0.762207,2.42749,-0.237427,0,0,0
206,220.885496,-53.526718,-115.312977,-0.817383,1.861694,-0.210327,0,0,0
209,181.572519,-50.549618,-130.335878,-0.845703,1.593018,0.034912,0,0,0
212,158.290076,-54.80916,-140.152672,-0.843018,1.412476,0.03833,0,0,0
215,154.396947,-55.129771,-135.083969,-0.799561,1.265991,-0.005859,0,0,0
218,154.717557,-57.908397,-127.526718,-0.778931,1.399292,-0.124634,0,0,0
221,161.358779,-57.19084,-124.931298,-0.849243,1.333374,0.091309,0,0,0
224,168.015267,-48.610687,-110.290076,-0.783813,1.968628,0.0271,0,0,0
227,162.351145,-61.694656,-94.80916,-0.784546,1.937256,-0.121094,0,0,0
230,158.137405,-52.442748,-80.335878,-0.63916,1.971436,-0.11499,0,0,0
233,133.969466,-35.358779,-69.862595,-0.72583,2.242188,-0.216431,0,0,0
236,131.435115,-47.358779,-51.053435,-0.818237,2.159424,-0.246826,0,0,0
239,124.870229,-35.740458,-45.984733,-0.701782,2.496582,-0.192505,0,0,0
242,115.389313,-36.091603,-34.549618,-0.746216,2.504395,-0.240967,0,0,0
245,84.320611,-36.824427,-35.251908,-0.796875,2.539917,-0.227783,0,0,0
248,70.290076,-36.48855,-19.984733,-0.768188,2.585693,-0.281494,0,0,0
251,47.618321,-47.022901,-15.480916,-0.81958,2.106689,-0.22998,0,0,0
254,46.152672,-27.938931,-4.763359,-0.714844,2.464355,-0.254517,0,0,0
1,34.10687,-34.610687,4.473282,-0.87561,2.049316,-0.228271,0,0,0
4,25.664122,-21.51145,4.427481,-0.74292,2.095093,-0.167114,0,0,0
7,6.167939,-19.328244,2.427481,-0.818604,1.99231,-0.183228,0,0,0
10,-5.908397,-18.549618,6.10687,-0.857422,1.821045,-0.056396,0,0,0
13,-19.740458,-18.610687,4.839695,-0.801392,1.753052,-0.098999,0,0,0
16,-39.435115,-23.984733,-4.534351,-0.858398,1.528564,-0.015015,0,0,0
19,-58.549618,-29.572519,-16.977099,-0.838501,1.325806,0.088379,0,0,0
22,-76.259542,-37.725191,-34.412214,-0.830444,1.110474,0.174805,0,0,0
25,-95.847328,-52.335878,-52.870229,-0.878784,0.942383,0.229492,0,0,0
28,-107.633588,-66.534351,-70.717557,-0.88147,0.716309,0.315186,0,0,0
31,-116.381679,-81.160305,-91.343511,-0.840942,0.585693,0.339111,0,0,0
34,-125.114504,-96.549618,-110.870229,-0.87439,0.562134,0.414673,0,0,0
37,-134.10687,-108.320611,-125.358779,-0.833496,0.583496,0.40979,0,0,0
40,-146.916031,-119.053435,-141.496183,-0.805054,0.605591,0.387573,0,0,0
43,-163.984733,-125.343511,-154.534351,-0.774292,0.63562,0.39502,0,0,0
46,-180.687023,-130.473282,-167.160305,-0.760986,0.657227,0.388062,0,0,0
49,-198.030534,-133.29771,-185.480916,-0.771606,0.690186,0.392456,0,0,0
52,-220.824427,-140.671756,-198.961832,-0.780884,0.734375,0.393066,0,0,0
55,-243.175573,-144.534351,-214.885496,-0.733765,0.783936,0.340088,0,0,0
58,-269.129771,-149.221374,-231.755725,-0.754395,0.837646,0.331543,0,0,0
61,-303.145038,-154.320611,-244.687023,-0.755005,0.860352,0.34021,0,0,0
64,-333.984733,-158.80916,-254.961832,-0.748535,0.865601,0.333496,0,0,0
67,-364.671756,-161.129771,-265.251908,-0.73291,0.861206,0.35144,0,0,0
70,-400.839695,-163.328244,-270.534351,-0.771362,0.858398,0.369507,0,0,0
73,-430.045802,-160.931298,-279.603053,-0.748535,0.838257,0.419434,0,0,0
76,-459.465649,-161.801527,-286.137405,-0.76416,0.830688,0.441895,0,0,0
79,-496.335878,-160.015267,-292.244275,-0.756348,0.87793,0.386841,0,0,0
82,-500.244275,-141.374046,-300.900763,-0.970581,0.831299,0.37854,0,0,0
85,-500.244275,-137.633588,-316.351145,-0.784668,0.938965,0.692627,0,0,0
88,-500.244275,-126.076336,-319.984733,-0.698486,0.846436,0.386963,0,0,0
91,-500.244275,-104.458015,-323.236641,-0.71167,0.711304,0.414673,0,0,0
94,-500.244275,-91.664122,-318.977099,-0.82251,0.563721,0.580933,0,0,0
97,-500.244275,-77.358779,-298.656489,-0.810425,0.47937,0.386719,0,0,0
100,-500.244275,-34.534351,-244.641221,-0.986694,0.902832,0.540161,0,0,0
103,-417.053435,-20.335878,-178.10687,-1.343262,1.319946,0.51416,0,0,0
106,-216.763359,-16.70229,-95.938931,-1.251953,1.598389,0.772949,0,0,0
109,-130,-10.412214,-47.099237,-1.174805,2.062988,0.611572,0,0,0
112,-96.870229,-18.412214,-2.870229,-1.233032,2.329468,0.561279,0,0,0
115,-114.519084,-8.335878,27.267176,-1.119141,2.402588,0.438843,0,0,0
118,-129.251908,-8.870229,51.038168,-1.184448,2.27417,0.533813,0,0,0
121,-142.763359,-2.671756,71.908397,-1.089111,2.051758,0.504028,0,0,0
124,-150.244275,6.610687,92.946565,-1.08606,1.697266,0.447876,0,0,0
127,-161.572519,9.435115,88.961832,-1.062622,1.354004,0.467773,0,0,0
130,-173.022901,15.954198,90.473282,-1.081787,1.242188,0.371704,0,0,0
133,-168.381679,6.763359,115.251908,-1.036133,0.926147,0.49231,0,0,0
136,-182.229008,2.427481,100.59542,-0.967163,0.442139,0.318237,0,0,0
139,-182.656489,3.984733,102.961832,-0.910645,0.55896,0.59668,0,0,0
142,-185.160305,5.938931,105.832061,-0.926514,0.458252,0.575195,0,0,0
145,-183.236641,4.290076,107.969466,-0.937256,0.490845,0.602417,0,0,0
148,-184.70229,1.557252,108.824427,-0.948608,0.477051,0.417236,0,0,0
151,-176.21374,0.503817,123.709924,-1.038208,0.614136,0.539185,0,0,0
154,-181.603053,-1.435115,120.381679,-0.998169,0.662964,0.378296,0,0,0
157,-173.832061,4.961832,136.458015,-0.961548,0.764526,0.544678,0,0,0
160,-178.610687,9.633588,139.679389,-0.998535,0.822144,0.510498,0,0,0
163,-177.816794,14.885496,146.80916,-1.075806,0.986938,0.486206,0,0,0
166,-178.534351,17.954198,153.572519,-1.035522,1.010376,0.380615,0,0,0
169,-179.328244,18.564885,160.21374,-1.132568,1.02478,0.530151,0,0,0
172,-174.519084,23.343511,172.549618,-1.072144,1.002197,0.49585,0,0,0
175,-182.80916,33.145038,169.78626,-1.045532,1.066772,0.398438,0,0,0
178,-194.70229,35.160305,172.412214,-1.164673,1.052856,0.333618,0,0,0
181,-201.221374,35.221374,184.137405,-1.099365,0.943481,0.441162,0,0,0
184,-206.824427,41.938931,189.587786,-1.082764,0.843018,0.551392,0,0,0
187,-208.351145,35.984733,196.992366,-1.11377,0.736206,0.391357,0,0,0
190,-205.267176,36.335878,200,-1.012817,0.587891,0.454346,0,0,0
193,-211.740458,30.442748,200.977099,-1.066528,0.379517,0.396606,0,0,0
196,-210.870229,24.015267,208.946565,-0.94873,0.248291,0.329346,0,0,0
199,-215.038168,25.755725,192.946565,-0.868164,0.005005,0.321045,0,0,0
202,-224.290076,25.755725,178.183206,-0.95459,0.153076,0.396973,0,0,0
205,-237.938931,14.152672,160.641221,-0.904907,-0.0979,0.24707,0,0,0
208,-239.78626,8.503817,157.40458,-0.905884,-0.108154,0.518799,0,0,0
211,-241.29771,4.534351,144.274809,-0.840942,-0.285156,0.529541,0,0,0
214,-250.625954,7.847328,134.152672,-0.895142,-0.110962,0.53479,0,0,0
217,-246.137405,-7.40458,136.641221,-0.875122,-0.260864,0.507935,0,0,0
220,-243.923664,-9.969466,135.587786,-0.833496,-0.043579,0.585571,0,0,0
223,-245.29771,-17.603053,125.175573,-0.846436,-0.135742,0.536621,0,0,0
226,-246.946565,-25.51145,122.198473,-0.917236,0.012695,0.608154,0,0,0
229,-249.725191,-30.335878,113.419847,-0.918457,0.000366,0.358887,0,0,0
232,-238.778626,-34.687023,119.358779,-0.872192,-0.08606,0.428589,0,0,0
235,-239.709924,-33.603053,109.832061,-0.930908,0.03186,0.493896,0,0,0
238,-233.145038,-33.312977,117.083969,-0.974365,0.300293,0.573486,0,0,0
241,-230.274809,-23.068702,106.10687,-0.945312,0.559814,0.643799,0,0,0
244,-245.801527,-33.374046,110.305344,-0.942627,0.270874,0.387817,0,0,0
247,-241.419847,-35.038168,117.068702,-1.046143,0.586182,0.703003,0,0,0
250,-243.175573,-42.854962,114.59542,-1.004028,0.379761,0.445435,0,0,0
253,-229.954198,-44.076336,134,-1.104492,0.660889,0.63855,0,0,0
0,-217.312977,-54.091603,151.328244,-1.057495,0.486084,0.497681,0,0,0
3,-214.48855,-50.045802,157.389313,-0.990723,0.490601,0.477783,0,0,0
6,-230.70229,-53.206107,141.328244,-1.065796,0.468018,0.427002,0,0,0
9,-266.122137,-51.236641,136.229008,-0.923584,0.260132,0.390747,0,0,0
12,-272.931298,-42.839695,142.839695,-0.951782,0.152222,0.46228,0,0,0
15,-263.984733,-39.847328,152.778626,-0.92395,-0.070435,0.34668,0,0,0
18,-246.442748,-51.206107,165.633588,-1.012329,-0.256714,0.369263,0,0,0
21,-242.900763,-43.587786,142.580153,-0.952271,-0.182251,0.25708,0,0,0
24,-255.419847,-33.862595,128.70229,-1.005249,0.078369,0.381226,0,0,0
27,-271.282443,-36.412214,132.992366,-0.935059,-0.162476,0.415527,0,0,0
30,-272.152672,-34.946565,133.908397,-1.020874,-0.273193,0.225952,0,0,0
33,-255.40458,-37.954198,145.19084,-0.948975,-0.394409,0.546509,0,0,0
36,-243.022901,-32.610687,152.885496,-1.021484,-0.208862,0.50769,0,0,0
39,-235.969466,-39.282443,149.328244,-0.996338,-0.320312,0.231567,0,0,0
42,-221.129771,-34.992366,159.160305,-1.016113,0.130859,0.495117,0,0,0
45,-237.862595,-32.183206,151.526718,-1.005981,0.095581,0.240356,0,0,0
48,-243.557252,-27.40458,158.442748,-1.028076,0.172119,0.373413,0,0,0
51,-233.801527,-24.48855,171.007634,-0.98291,0.106689,0.59082,0,0,0
54,-249.832061,-18.564885,160.503817,-1.033569,0.150513,0.38501,0,0,0
57,-256.946565,-19.29771,162.793893,-1.04187,0.111572,0.325928,0,0,0
60,-259.984733,-16.549618,163.40458,-1.031494,-0.055908,0.429443,0,0,0
63,-269.541985,-15.801527,150.396947,-1.05188,-0.276245,0.112427,0,0,0
66,-250.183206,-15.633588,176.763359,-1.066284,-0.014404,0.333374,0,0,0
69,-234.717557,-14.534351,185.068702,-1.06189,0.016479,0.263794,0,0,0
72,-222.48855,-9.19084,196.10687,-1.02832,0.154175,0.409302,0,0,0
75,-247.969466,-10.687023,178.21374,-1.022339,-0.171387,0.071411,0,0,0
78,-246.763359,-3.709924,198.610687,-1.036255,-0.000977,0.496216,0,0,0
81,-250.152672,-2,194.274809,-1.005005,-0.114624,0.180542,0,0,0
84,-246.656489,-2.824427,199.923664,-1.022949,-0.140503,0.270386,0,0,0
87,-248.091603,-4.167939,197.954198,-0.997925,-0.353149,0.331177,0,0,0
90,-265.633588,1.694656,177.816794,-0.936768,-0.582031,0.029663,0,0,0
93,-266.885496,-13.923664,173.282443,-0.961426,-0.893066,0.187744,0,0,0
96,-265.832061,-6.427481,173.221374,-0.933838,-0.646362,0.460571,0,0,0
99,-239.358779,-12.732824,182.549618,-0.974854,-0.646484,0.012207,0,0,0
102,-207.282443,-28.290076,196.122137,-1.066162,-0.481445,0.327881,0,0,0
105,-215.206107,-31.816794,183.236641,-0.873413,-0.511353,0.068481,0,0,0
108,-201.557252,-29.114504,204.183206,-0.904785,-0.177734,0.51123,0,0,0
111,-211.282443,-38.290076,199.068702,-1.0354,-0.349487,0.268799,0,0,0
114,-207.923664,-36.656489,206.061069,-1.05835,-0.076416,0.343506,0,0,0
117,-208.564885,-41.938931,207.358779,-0.967285,-0.346191,0.215698,0,0,0
120,-214.10687,-40.366412,197.343511,-0.935791,-0.636108,0.30188,0,0,0
123,-224.274809,-37.923664,180.992366,-0.908691,-0.966797,0.266235,0,0,0
126,-228.091603,-33.847328,171.770992,-0.924072,-0.978882,0.412109,0,0,0
129,-204.870229,-36.396947,179.465649,-0.911865,-0.897339,0.348511,0,0,0
132,-191.465649,-37.679389,181.496183,-0.929077,-0.795532,0.263306,0,0,0
135,-188.916031,-39.908397,177.083969,-0.893677,-0.903687,0.200439,0,0,0
138,-197.847328,-42.564885,164.870229,-0.898193,-0.978638,0.170654,0,0,0
141,-206.748092,-45.328244,154.931298,-0.852539,-1.173218,0.289062,0,0,0
144,-195.068702,-45.465649,168.21374,-0.816406,-1.058716,0.44458,0,0,0
147,-191.068702,-41.984733,152.732824,-0.939087,-1.157715,0.318481,0,0,0
150,-172.259542,-47.572519,159.526718,-0.909058,-0.953613,0.185181,0,0,0
153,-164.931298,-47.312977,159.770992,-0.83252,-1.074829,0.185791,0,0,0
156,-163.099237,-43.923664,158.916031,-0.938721,-0.728882,0.171997,0,0,0
159,-156.183206,-46.21374,164.732824,-0.909424,-0.689819,0.250122,0,0,0
162,-162.183206,-43.862595,158.839695,-0.920044,-0.731567,0.268188,0,0,0
165,-160.48855,-43.587786,169.236641,-0.901489,-0.594604,0.412598,0,0,0
168,-164.473282,-39.40458,171.175573,-0.957642,-0.630981,0.369019,0,0,0
171,-165.694656,-40.80916,162.793893,-0.961792,-0.898315,0.160767,0,0,0
174,-151.419847,-37.022901,180,-0.814941,-0.7323,0.582031,0,0,0
177,-163.267176,-36.122137,168.946565,-0.955933,-0.877686,0.230591,0,0,0
180,-152.717557,-39.587786,180.534351,-0.905884,-0.911255,0.369019,0,0,0
183,-153.648855,-34.274809,176.80916,-0.929077,-0.858765,0.337402,0,0,0
186,-138.21374,-39.267176,191.29771,-0.811646,-0.976074,0.309814,0,0,0
189,-139.847328,-33.603053,183.725191,-0.78418,-1.063721,0.376587,0,0,0
192,-149.496183,-33.068702,174.366412,-0.877441,-1.115112,0.400024,0,0,0
195,-137.984733,-34,185.89313,-0.765381,-1.160889,0.512695,0,0,0
198,-136.885496,-33.129771,179.51145,-0.715576,-1.382935,0.23877,0,0,0
201,-137.267176,-32.137405,170.167939,-0.69397,-1.665283,0.37915,0,0,0
204,-148.198473,-23.419847,152.198473,-0.761475,-1.678833,0.44104,0,0,0
207,-131.099237,-26.900763,157.328244,-0.745483,-1.744629,0.366455,0,0,0
210,-108.152672,-28.412214,161.587786,-0.654297,-1.69397,0.591919,0,0,0
213,-108.916031,-19.19084,148.59542,-0.785889,-1.451782,0.439941,0,0,0
216,-98.564885,-27.358779,148.793893,-0.761475,-1.555054,0.294556,0,0,0
219,-95.969466,-23.389313,144.10687,-0.679565,-1.554321,0.374634,0,0,0
222,-103.480916,-21.221374,132.824427,-0.751953,-1.559448,0.401367,0,0,0
225,-90.10687,-22.366412,141.755725,-0.799805,-1.348755,0.41394,0,0,0
228,-82.763359,-19.801527,135.847328,-0.729492,-1.395264,0.337402,0,0,0
231,-82.427481,-18.076336,133.099237,-0.788086,-1.300171,0.412964,0,0,0
234,-76.366412,-18.152672,138.900763,-0.747925,-1.244019,0.475708,0,0,0
237,-80.59542,-12.80916,126.748092,-0.807983,-1.237549,0.294189,0,0,0
240,-72.381679,-18.351145,133.984733,-0.765991,-1.278564,0.421509,0,0,0
243,-75.938931,-13.206107,120.152672,-0.749634,-1.273193,0.442017,0,0,0
246,-84.885496,-11.541985,116.961832,-0.775391,-1.239502,0.424194,0,0,0
249,-80.580153,-10.167939,112.885496,-0.793823,-1.322266,0.441284,0,0,0
252,-77.175573,-8.885496,108,-0.755371,-1.376831,0.410767,0,0,0
255,-67.236641,-3.740458,108.656489,-0.820801,-1.272705,0.421265,0,0,0
2,-57.526718,-5.89313,104.442748,-0.783691,-1.447388,0.387085,0,0,0
5,-47.984733,-4.167939,101.618321,-0.763062,-1.403931,0.431641,0,0,0
8,-46.625954,-0.320611,95.267176,-0.77002,-1.374512,0.411133,0,0,0
11,-44.854962,-1.862595,90.824427,-0.761597,-1.437866,0.412598,0,0,0
14,-41.083969,0.824427,90.198473,-0.757568,-1.348999,0.49646,0,0,0
17,-33.251908,1.450382,86.061069,-0.780396,-1.300293,0.442627,0,0,0
20,-27.908397,-1.083969,82.870229,-0.748657,-1.359375,0.466309,0,0,0
23,-26.305344,-0.977099,77.633588,-0.765991,-1.278442,0.49353,0,0,0
26,-18.519084,-3.618321,81.267176,-0.781494,-1.156128,0.503784,0,0,0
29,-8.305344,-7.053435,80.732824,-0.759277,-1.142944,0.501831,0,0,0
32,-2.244275,-9.374046,77.40458,-0.777466,-1.063843,0.515747,0,0,0
35,5.51145,-14.381679,79.465649,-0.776978,-0.999023,0.535645,0,0,0
38,18.564885,-17.435115,84.274809,-0.779297,-0.866577,0.575928,0,0,0
41,31.068702,-21.725191,91.206107,-0.80957,-0.751587,0.60437,0,0,0
44,44.900763,-27.358779,102.748092,-0.80603,-0.652466,0.611694,0,0,0
47,59.969466,-29.725191,111.770992,-0.803711,-0.517944,0.624756,0,0,0
50,71.541985,-33.221374,121.770992,-0.815796,-0.428711,0.630859,0,0,0
53,82.152672,-35.114504,134.305344,-0.79834,-0.390259,0.637817,0,0,0
56,93.083969,-36.061069,143.526718,-0.806519,-0.376343,0.642822,0,0,0
59,101.78626,-35.816794,151.465649,-0.81958,-0.372314,0.653931,0,0,0
62,111.816794,-37.694656,164.305344,-0.81897,-0.385864,0.655396,0,0,0
65,125.709924,-39.175573,175.954198,-0.797363,-0.460693,0.643677,0,0,0
68,139.282443,-36.824427,184.839695,-0.794434,-0.494873,0.663208,0,0,0
71,155.725191,-37.618321,199.618321,-0.779419,-0.570557,0.648071,0,0,0
74,178.641221,-37.969466,213.450382,-0.7677,-0.627319,0.619629,0,0,0
77,200.137405,-38.80916,226.503817,-0.776367,-0.623169,0.631226,0,0,0
80,220.931298,-39.175573,239.328244,-0.778931,-0.580078,0.626343,0,0,0
83,246.290076,-39.78626,249.435115,-0.782104,-0.505737,0.63269,0,0,0
86,266.641221,-40.427481,258.305344,-0.767822,-0.514282,0.623291,0,0,0
89,286.167939,-39.465649,262.961832,-0.772461,-0.475708,0.629639,0,0,0
92,308.549618,-39.389313,266.916031,-0.773071,-0.443359,0.62085,0,0,0
95,326.076336,-38.290076,267.526718,-0.75354,-0.463867,0.578003,0,0,0
98,340.198473,-32.885496,261.725191,-0.739624,-0.490845,0.501831,0,0,0
101,348.900763,-17.908397,254.412214,-0.733398,-0.494019,0.380127,0,0,0
104,343.435115,0.290076,246.091603,-0.838379,-0.447754,0.377075,0,0,0
107,329.206107,8.534351,244.977099,-0.957642,-0.253906,0.506104,0,0,0
110,299.51145,10.534351,255.374046,-0.963013,-0.050049,0.454712,0,0,0
113,267.435115,11.206107,264.335878,-0.867554,-0.474609,0.464844,0,0,0
116,251.389313,16.320611,254.687023,-0.825928,-0.931152,0.548462,0,0,0
119,259.389313,23.89313,231.908397,-0.853027,-1.227295,0.561401,0,0,0
122,269.89313,29.19084,207.053435,-0.931396,-1.165649,0.702637,0,0,0
125,275.206107,31.19084,184.10687,-0.937744,-0.99707,0.722656,0,0,0
128,254.076336,39.206107,156.977099,-0.922119,-0.989136,0.601562,0,0,0
131,224.717557,47.282443,128.366412,-0.971069,-0.904907,0.683105,0,0,0
134,191.114504,49.572519,97.465649,-0.938477,-1.117188,0.587769,0,0,0
137,153.755725,56.564885,72.152672,-1.001587,-1.112061,0.778809,0,0,0
140,139.374046,52.290076,55.358779,-0.952393,-1.391724,0.714233,0,0,0
143,133.007634,52.885496,34.122137,-0.963623,-1.464966,0.837524,0,0,0
146,142.320611,47.572519,20.473282,-0.98291,-1.568604,0.832642,0,0,0
149,162.717557,40.412214,16.274809,-0.959106,-1.567993,0.85437,0,0,0
152,171.29771,35.618321,2.610687,-0.994507,-1.422852,0.829468,0,0,0
155,189.022901,27.419847,-3.206107,-0.981445,-1.310425,0.84436,0,0,0
158,200.519084,22.564885,-11.267176,-0.996582,-1.126221,0.778809,0,0,0
161,207.740458,16.625954,-20.519084,-0.962036,-1.101074,0.707397,0,0,0
164,198.70229,16.687023,-38.381679,-0.969482,-0.949097,0.697144,0,0,0
167,193.969466,13.450382,-48.564885,-0.998657,-0.849487,0.710205,0,0,0
170,182.442748,11.358779,-61.78626,-0.97937,-0.805786,0.636719,0,0,0
173,168.70229,12.473282,-86.198473,-1.024048,-0.862183,0.645874,0,0,0
176,158.610687,10.503817,-101.175573,-1.036621,-0.768677,0.637817,0,0,0
179,154.290076,7.389313,-112.427481,-0.989136,-0.992065,0.592896,0,0,0
182,140.885496,10.396947,-141.099237,-1.067017,-1.045532,0.650757,0,0,0
185,158.48855,7.29771,-137.206107,-1.022949,-0.931641,0.740234,0,0,0
188,164.717557,5.221374,-142.442748,-1.001831,-1.078003,0.639526,0,0,0
191,165.832061,2.900763,-162.229008,-1.050049,-1.00769,0.662354,0,0,0
194,168.900763,-0.992366,-163.251908,-1.0625,-0.837158,0.667969,0,0,0
197,182.396947,-3.40458,-156.10687,-0.955566,-0.676025,0.657593,0,0,0
200,182.290076,-2.732824,-168.625954,-1.062134,-0.682129,0.583984,0,0,0
203,183.862595,-11.816794,-175.908397,-1.032471,-0.741943,0.487061,0,0,0
206,192.244275,-13.557252,-176.625954,-0.991455,-0.583008,0.544067,0,0,0
209,195.725191,-16.21374,-179.053435,-0.965088,-0.546387,0.526001,0,0,0
212,206.885496,-19.175573,-184.198473,-1.019287,-0.352539,0.511108,0,0,0
215,206.503817,-25.587786,-186.748092,-1.046265,-0.510254,0.416748,0,0,0
218,209.664122,-28.229008,-194.870229,-1.0354,-0.577148,0.486328,0,0,0
221,207.969466,-28.259542,-198.076336,-1.043213,-0.389893,0.49939,0,0,0
224,217.816794,-28.610687,-185.022901,-0.981934,-0.237793,0.508301,0,0,0
227,214.503817,-25.847328,-192.824427,-1.010498,-0.223633,0.372681,0,0,0
230,221.312977,-27.40458,-194.137405,-0.996582,-0.166504,0.440063,0,0,0
233,228.610687,-30.870229,-184.473282,-0.990601,-0.38147,0.449219,0,0,0
236,225.221374,-28.503817,-196.442748,-0.996338,-0.223145,0.385986,0,0,0
239,231.679389,-30.534351,-194.137405,-1.031982,-0.268311,0.484253,0,0,0
242,235.099237,-32.732824,-191.51145,-1.02417,-0.366089,0.422241,0,0,0
245,232.549618,-33.603053,-202.549618,-1.028931,-0.524414,0.386597,0,0,0
248,229.832061,-32.198473,-209.068702,-1.039917,-0.382202,0.482788,0,0,0
251,228.641221,-33.206107,-207.801527,-1.029907,-0.256836,0.449707,0,0,0
254,241.160305,-41.160305,-203.267176,-1.008911,-0.533569,0.462402,0,0,0
1,249.007634,-37.572519,-204.198473,-1.018311,-0.183716,0.483765,0,0,0
4,262.152672,-47.725191,-192.442748,-0.997803,-0.16333,0.375732,0,0,0
7,266.137405,-47.664122,-183.847328,-0.979004,0.17981,0.399902,0,0,0
10,268.610687,-48.732824,-181.053435,-1.025879,0.327515,0.244751,0,0,0
13,270.625954,-53.328244,-166.549618,-0.981934,0.491211,0.265991,0,0,0
16,265.679389,-53.358779,-163.129771,-0.948486,0.562378,0.271484,0,0,0
19,245.068702,-56.366412,-169.770992,-0.926147,0.492798,0.250732,0,0,0
22,221.832061,-50.503817,-180.48855,-0.96875,0.596924,0.276855,0,0,0
25,203.832061,-56.824427,-186.335878,-0.973755,0.382812,0.203247,0,0,0
28,193.832061,-59.51145,-191.587786,-1.010376,0.114014,0.368286,0,0,0
31,184.305344,-61.709924,-201.969466,-1.010742,-0.068115,0.300293,0,0,0
34,193.664122,-62.152672,-203.328244,-1.030151,-0.053101,0.361694,0,0,0
37,221.801527,-59.770992,-175.862595,-0.94519,0.367065,0.334351,0,0,0
40,224.412214,-62.320611,-177.664122,-0.984619,0.116211,0.360962,0,0,0
43,228.534351,-61.740458,-170.137405,-1.004761,0.36084,0.300415,0,0,0
46,227.007634,-66.442748,-169.022901,-1.084106,0.15686,0.213135,0,0,0
49,215.221374,-67.480916,-172.259542,-0.991333,0.014282,0.333862,0,0,0
52,204.916031,-61.221374,-179.374046,-1.033325,0.193848,0.378418,0,0,0
55,214.442748,-66.732824,-167.770992,-0.994873,0.062744,0.420776,0,0,0
58,205.40458,-65.770992,-180.610687,-0.973511,-0.078735,0.336548,0,0,0
61,202.091603,-65.129771,-190.351145,-1.037354,0.034302,0.371948,0,0,0
64,209.908397,-65.419847,-177.282443,-1.031982,0.248047,0.27002,0,0,0
67,229.633588,-70.10687,-165.022901,-0.979736,0.077148,0.244629,0,0,0
70,225.664122,-73.847328,-179.236641,-1.039673,0.026123,0.267822,0,0,0
73,233.51145,-72.351145,-171.648855,-1.00061,0.255127,0.386353,0,0,0
76,245.709924,-75.236641,-160.519084,-0.972412,0.187256,0.359375,0,0,0
79,235.923664,-72.564885,-169.954198,-1.006226,0.217285,0.344116,0,0,0
82,223.770992,-72.824427,-179.236641,-0.986206,0.199707,0.286865,0,0,0
85,221.877863,-74.48855,-173.374046,-0.968506,0.21582,0.304077,0,0,0
88,216.870229,-75.770992,-179.557252,-1.025757,-0.023315,0.262085,0,0,0
91,215.251908,-74.977099,-183.770992,-1.010742,-0.008545,0.41394,0,0,0
94,212.564885,-69.847328,-190.992366,-0.968994,0.00293,0.420288,0,0,0
97,217.603053,-72.946565,-193.664122,-1.015625,-0.277466,0.442505,0,0,0
100,226.10687,-67.29771,-191.725191,-0.976685,0.146118,0.415405,0,0,0
103,234.839695,-69.740458,-187.526718,-1.016602,0.059692,0.322388,0,0,0
106,251.19084,-68.48855,-181.099237,-1,0.266968,0.362183,0,0,0
109,244.412214,-69.389313,-188.534351,-0.950073,0.133911,0.257202,0,0,0
112,242.641221,-68.122137,-194.503817,-0.953857,0.293701,0.387207,0,0,0
115,233.832061,-70.519084,-194.320611,-0.978638,0.199829,0.339233,0,0,0
118,230.534351,-70.351145,-198.641221,-0.966553,0.231323,0.336182,0,0,0
121,235.770992,-72.59542,-198.748092,-0.955566,0.033936,0.410278,0,0,0
124,238.274809,-72.961832,-202.061069,-0.942505,0.297485,0.345093,0,0,0
127,245.847328,-76.427481,-198.916031,-0.929565,0.12793,0.327393,0,0,0
130,255.877863,-73.312977,-189.908397,-0.912964,0.464111,0.454712,0,0,0
133,249.099237,-83.679389,-195.801527,-0.942871,0.036011,0.381104,0,0,0
136,231.007634,-84.748092,-225.374046,-0.899414,-0.037231,0.571411,0,0,0
139,202.534351,-95.725191,-252.900763,-0.936768,-0.295654,0.558105,0,0,0
142,202.580153,-100.442748,-259.832061,-0.923828,-0.281494,0.588257,0,0,0
145,223.358779,-103.770992,-245.664122,-0.913208,-0.144897,0.543823,0,0,0
148,247.129771,-109.450382,-236.48855,-0.960205,-0.070312,0.323608,0,0,0
151,270.412214,-114.931298,-228,-1.000977,0.116943,0.311035,0,0,0
154,289.419847,-119.618321,-219.832061,-0.956055,0.166992,0.269043,0,0,0
157,296.274809,-112.778626,-213.847328,-1.020264,0.626953,0.214722,0,0,0
160,298.70229,-123.007634,-195.954198,-1.026001,0.64563,0.119995,0,0,0
163,291.450382,-119.206107,-197.221374,-1.01001,0.800415,0.15979,0,0,0
166,300.290076,-116.580153,-175.572519,-0.99939,1.072876,0.013672,0,0,0
169,314.885496,-113.694656,-153.267176,-1.011719,1.305908,-0.070435,0,0,0
172,315.328244,-113.007634,-142.70229,-1.032104,1.294067,-0.0177,0,0,0
175,281.160305,-114.961832,-158.061069,-0.998413,1.045166,0.116821,0,0,0
178,231.450382,-110.717557,-190.091603,-1.058228,0.977905,0.063965,0,0,0
181,205.175573,-118.076336,-199.709924,-1.02124,0.542358,0.211182,0,0,0
184,175.053435,-117.160305,-223.954198,-1.028442,0.161743,0.245972,0,0,0
187,169.053435,-123.358779,-237.801527,-1.082397,-0.270874,0.389893,0,0,0
190,177.175573,-124.320611,-245.648855,-1.05957,-0.314575,0.463257,0,0,0
193,201.251908,-125.053435,-242.152672,-1.017334,-0.338257,0.387573,0,0,0
196,226.70229,-118.839695,-229.648855,-1.02832,-0.071167,0.382812,0,0,0
199,256.641221,-116.259542,-207.068702,-1.053833,0.130981,0.363281,0,0,0
202,282.290076,-110.152672,-189.664122,-0.99585,0.325684,0.319702,0,0,0
205,284.290076,-103.389313,-189.618321,-1.00354,0.372681,0.325439,0,0,0
208,270.48855,-99.40458,-197.374046,-0.999023,0.502563,0.272827,0,0,0
211,270.335878,-94.442748,-189.419847,-0.963013,0.721191,0.245361,0,0,0
214,249.541985,-93.801527,-197.938931,-1.015625,0.690063,0.163696,0,0,0
217,256.381679,-83.984733,-186.198473,-0.947021,0.899414,0.202271,0,0,0
220,251.770992,-78.396947,-187.312977,-0.998413,0.960083,0.092773,0,0,0
223,248.030534,-78.534351,-179.007634,-0.977173,1.012573,0.017456,0,0,0
226,232.091603,-79.557252,-183.236641,-0.95166,1.010132,0.048828,0,0,0
229,217.251908,-74.503817,-191.29771,-0.911621,1.103271,0.223022,0,0,0
232,187.435115,-75.877863,-196.167939,-0.932251,0.80835,0.291138,0,0,0
235,168.259542,-73.603053,-212,-0.899414,0.692017,0.113892,0,0,0
238,156.839695,-69.007634,-225.29771,-0.922974,0.723267,0.470825,0,0,0
241,158.564885,-65.862595,-188.442748,-0.967651,0.682129,0.390015,0,0,0
244,186.076336,-81.908397,-178.183206,-0.954102,0.577515,-0.06311,0,0,0
247,195.770992,-65.435115,-193.725191,-0.821167,0.6427,0.383911,0,0,0
250,189.450382,-59.526718,-188.10687,-0.92749,0.899292,0.239502,0,0,0
253,189.282443,-62.564885,-173.007634,-0.933228,0.934326,0.262085,0,0,0
0,197.328244,-66.580153,-155.221374,-0.899902,0.769043,0.285034,0,0,0
3,210.122137,-57.938931,-158.59542,-0.863159,1.110962,0.170776,0,0,0
6,208.519084,-51.419847,-158.137405,-0.827881,1.325439,0.179565,0,0,0
9,198.427481,-53.343511,-148.748092,-0.933716,1.324951,0.234741,0,0,0
12,176.763359,-53.343511,-148.824427,-0.840576,1.355835,0.330322,0,0,0
15,158.793893,-61.541985,-157.343511,-0.794312,1.257935,0.024536,0,0,0
18,143.847328,-68.351145,-163.236641,-0.90271,1.180908,0.092896,0,0,0
21,152.778626,-69.557252,-138.244275,-0.860229,1.414429,0.26355,0,0,0
24,141.89313,-71.709924,-145.29771,-0.94458,1.501221,0.293701,0,0,0
27,151.725191,-70.778626,-124.167939,-0.853149,1.712646,0.123779,0,0,0
30,128.48855,-77.053435,-139.068702,-0.919312,1.295166,-0.074951,0,0,0
33,119.740458,-70.030534,-129.480916,-0.831909,1.63562,0.103882,0,0,0
36,107.740458,-62.21374,-120.748092,-0.835815,1.763306,0.136108,0,0,0
39,96.229008,-60.748092,-106.48855,-0.883545,1.885742,0.097778,0,0,0
42,85.526718,-61.175573,-105.068702,-0.903809,1.815308,-0.031494,0,0,0
45,94.351145,-52.641221,-88.244275,-0.832031,1.963989,0.022705,0,0,0
48,81.969466,-46.916031,-84.076336,-0.921753,2.123291,-0.051636,0,0,0
51,72.10687,-44.320611,-72.70229,-0.902832,2.080933,-0.032471,0,0,0
54,72.580153,-35.465649,-49.816794,-0.878052,2.317505,-0.055298,0,0,0
57,57.923664,-37.114504,-48.519084,-0.911865,2.202026,-0.194824,0,0,0
60,48.717557,-34.167939,-36.977099,-0.953247,2.305786,-0.174683,0,0,0
63,36.10687,-30.229008,-30.21374,-0.949341,2.246948,-0.127686,0,0,0
66,27.725191,-22.48855,-14.625954,-0.892212,2.405396,-0.188354,0,0,0
69,8.335878,-19.862595,-10.885496,-0.94751,2.272827,-0.126831,0,0,0
72,-10.793893,-13.587786,-4.274809,-0.92688,2.465454,-0.230347,0,0,0
75,-29.664122,-14.244275,-0.351145,-0.962769,2.338257,-0.199097,0,0,0
78,-68.48855,-19.114504,-14.916031,-0.957397,1.972778,-0.018311,0,0,0
81,-121.038168,-33.679389,-55.40458,-1.006226,1.380981,0.148926,0,0,0
84,-166.274809,-57.465649,-90.854962,-0.994751,0.875366,0.25,0,0,0
87,-190.885496,-76.519084,-111.419847,-0.957764,0.586548,0.311523,0,0,0
90,-209.374046,-91.603053,-124.610687,-0.934814,0.500122,0.336792,0,0,0
93,-227.282443,-105.908397,-133.083969,-0.890137,0.456787,0.369019,0,0,0
96,-242.244275,-115.725191,-141.083969,-0.835327,0.494507,0.394653,0,0,0
99,-259.694656,-123.541985,-148.687023,-0.821533,0.615112,0.402222,0,0,0
102,-280.778626,-129.877863,-155.221374,-0.776123,0.756348,0.413452,0,0,0
105,-315.068702,-132.061069,-165.19084,-0.739746,0.981201,0.327515,0,0,0
108,-352.793893,-131.129771,-175.923664,-0.767944,1.174072,0.329102,0,0,0
111,-398.931298,-132.656489,-189.328244,-0.800537,1.3302,0.267456,0,0,0
114,-456.137405,-129.450382,-200.458015,-0.781006,1.426025,0.300171,0,0,0
117,-500.244275,-130.015267,-217.51145,-0.825439,1.549438,0.21521,0,0,0
120,-500.244275,-121.389313,-228.030534,-0.852417,1.672119,0.271851,0,0,0
123,-500.244275,-123.29771,-237.923664,-0.864624,1.645142,0.234009,0,0,0
126,-500.244275,-111.358779,-249.389313,-0.895508,1.599609,0.203247,0,0,0
129,-500.244275,-66.473282,-228.870229,-0.944458,1.589355,0.081177,0,0,0
132,-500.244275,-37.206107,-180.870229,-1.036255,1.276123,0.443115,0,0,0
135,-500.244275,-21.877863,-148.885496,-1.187744,1.261719,0.506104,0,0,0
138,-417.541985,-13.923664,-105.984733,-1.167603,1.378296,0.485474,0,0,0
141,-353.877863,-8.244275,-67.083969,-1.247192,1.788696,0.438354,0,0,0
144,-282.80916,6.717557,-26.458015,-1.315918,2.332886,0.449097,0,0,0
147,-253.419847,0.732824,33.694656,-1.229736,2.324707,0.512573,0,0,0
150,-237.740458,-2.381679,71.374046,-1.160889,2.102661,0.58667,0,0,0
153,-237.007634,4.534351,89.801527,-1.077637,1.955078,0.571289,0,0,0
156,-250.198473,2.274809,92.748092,-1.184814,1.854126,0.319946,0,0,0
159,-275.816794,3.587786,102.885496,-1.133423,1.888306,0.382446,0,0,0
162,-288.717557,1.374046,113.083969,-0.97937,1.413452,0.462891,0,0,0
165,-312.732824,6.503817,102.122137,-1.053345,1.228271,0.344971,0,0,0
168,-328.152672,2.381679,100.732824,-1.059082,1.001465,0.500977,0,0,0
171,-344.030534,2.503817,103.877863,-1.003174,0.849365,0.483643,0,0,0
174,-333.007634,0.625954,124.21374,-0.889526,0.529907,0.567017,0,0,0
177,-310.900763,10,138.305344,-1.000122,0.397827,0.520508,0,0,0
180,-294.977099,-1.282443,139.618321,-0.988647,0.26123,0.375854,0,0,0
183,-285.007634,-0.458015,142.717557,-0.981079,0.217041,0.564331,0,0,0
186,-278.152672,-3.923664,149.526718,-0.941772,0.237671,0.495605,0,0,0
189,-282.80916,-2.427481,145.969466,-0.915527,0.188232,0.432129,0,0,0
192,-287.145038,-2.748092,150.656489,-0.926636,0.269043,0.373413,0,0,0
195,-291.709924,-4.351145,143.89313,-0.972656,0.025513,0.533569,0,0,0
198,-286.839695,-4.503817,139.251908,-0.902466,-0.014404,0.470337,0,0,0
201,-279.358779,1.984733,146.717557,-0.922363,0.09314,0.606934,0,0,0
204,-267.938931,-5.465649,148.152672,-0.931152,-0.061401,0.60144,0,0,0
207,-257.526718,1.587786,150.229008,-0.830078,0.031006,0.67981,0,0,0
210,-256,4.717557,148.396947,-0.969116,0.187256,0.439331,0,0,0
213,-244.198473,-0.21374,153.709924,-1.01709,0.078735,0.55603,0,0,0
216,-241.801527,-1.175573,158.351145,-0.853027,0.08374,0.55481,0,0,0
219,-248.625954,10.70229,154.427481,-0.963989,0.198486,0.392456,0,0,0
222,-228.931298,5.022901,165.343511,-1.008301,0.126831,0.676514,0,0,0
225,-231.51145,10.580153,163.633588,-0.879028,0.159546,0.5177,0,0,0
228,-219.78626,11.251908,176.473282,-0.922729,0.106079,0.494629,0,0,0
231,-224.778626,15.496183,166.671756,-0.804565,-0.10376,0.468262,0,0,0
234,-236.076336,24.763359,163.435115,-0.894531,-0.047974,0.569336,0,0,0
237,-230.580153,23.862595,167.89313,-0.890503,-0.150146,0.605835,0,0,0
240,-212.946565,14.564885,173.526718,-0.849243,-0.222778,0.661743,0,0,0
243,-215.374046,12.687023,159.480916,-0.881348,-0.215332,0.39917,0,0,0
246,-201.709924,7.175573,170.320611,-0.902588,-0.158936,0.462769,0,0,0
249,-190.549618,-4.59542,163.129771,-0.759888,-0.460205,0.396362,0,0,0
252,-203.19084,-1.221374,149.526718,-0.758545,-0.126831,0.600952,0,0,0
255,-208.122137,-10.076336,145.526718,-0.820801,-0.292847,0.550781,0,0,0
2,-221.022901,-10.381679,125.389313,-0.886475,-0.292969,0.294312,0,0,0
5,-221.221374,-22,119.022901,-0.853882,-0.52063,0.50354,0,0,0
8,-225.267176,-18.870229,107.145038,-0.858032,-0.440918,0.531616,0,0,0
11,-224.519084,-26.442748,94.091603,-0.842529,-0.520264,0.269287,0,0,0
14,-219.877863,-30.824427,95.89313,-0.860474,-0.521362,0.43042,0,0,0
17,-213.908397,-30.625954,94.549618,-0.848633,-0.266357,0.533325,0,0,0
20,-210.21374,-30.290076,91.175573,-0.865479,-0.174438,0.508667,0,0,0
23,-196.717557,-30.839695,98.167939,-0.915771,0.04126,0.614502,0,0,0
26,-189.832061,-36.641221,105.19084,-0.863525,-0.016846,0.520874,0,0,0
29,-177.572519,-36.183206,108.503817,-0.849976,0.044434,0.687744,0,0,0
32,-160.732824,-29.618321,115.450382,-1.018433,0.366211,0.653564,0,0,0
35,-160.167939,-33.007634,112.259542,-0.968872,0.478882,0.353394,0,0,0
38,-173.832061,-26.381679,114.10687,-0.954956,0.60144,0.541138,0,0,0
41,-198.366412,-20.580153,112.045802,-1.034546,0.589966,0.517822,0,0,0
44,-204.320611,-30.793893,114.885496,-0.897949,0.278931,0.505737,0,0,0
47,-221.740458,-21.114504,111.984733,-1.000488,0.333984,0.564331,0,0,0
50,-211.78626,-31.267176,119.236641,-1.03479,0.128296,0.403442,0,0,0
53,-182.763359,-34.351145,132.152672,-0.995728,0.232178,0.493164,0,0,0
56,-183.725191,-38.916031,132.076336,-0.945557,0.192383,0.327148,0,0,0
59,-182.442748,-37.083969,140.030534,-1.007202,0.406128,0.515747,0,0,0
62,-192.870229,-40.305344,141.633588,-1.007568,0.334229,0.450439,0,0,0
65,-192.80916,-41.984733,145.038168,-0.993652,0.361816,0.444458,0,0,0
68,-183.526718,-37.557252,158.641221,-1.041992,0.406006,0.606567,0,0,0
71,-190.427481,-38.412214,156.183206,-0.974731,0.319336,0.347046,0,0,0
74,-198.061069,-39.343511,153.236641,-0.98938,0.348511,0.391113,0,0,0
77,-209.557252,-34.946565,156.80916,-0.972534,0.307861,0.609985,0,0,0
80,-217.29771,-37.603053,154.198473,-0.988159,-0.050537,0.380371,0,0,0
83,-218.21374,-30.580153,156.290076,-1.02417,0.166382,0.451172,0,0,0
86,-208.534351,-32.656489,158.916031,-0.982422,0.01062,0.470947,0,0,0
89,-212.748092,-32.244275,154.961832,-0.985352,0.083862,0.348022,0,0,0
92,-212.778626,-31.89313,156.473282,-1.029541,0.012939,0.36377,0,0,0
95,-204.21374,-35.358779,160.916031,-0.946289,-0.047729,0.471924,0,0,0
98,-205.832061,-28.458015,163.938931,-1.033569,0.189087,0.540039,0,0,0
101,-198.137405,-39.816794,166.061069,-0.947632,-0.049927,0.443115,0,0,0
104,-195.801527,-34.763359,176.351145,-0.956055,0.168579,0.693359,0,0,0
107,-205.51145,-34.259542,169.832061,-0.937866,-0.001831,0.487671,0,0,0
110,-215.206107,-32.748092,164.564885,-0.978638,0.026123,0.344849,0,0,0
113,-216.396947,-31.19084,166.870229,-1.007568,-0.055542,0.356812,0,0,0
116,-217.816794,-31.770992,169.557252,-0.966309,0.005249,0.34375,0,0,0
119,-204.030534,-30.916031,181.557252,-1.014648,-0.084229,0.500732,0,0,0
122,-196.854962,-31.725191,185.938931,-1.047607,0.081421,0.403442,0,0,0
125,-193.725191,-26.442748,194.732824,-0.980957,0.346924,0.560303,0,0,0
128,-202.839695,-31.816794,191.465649,-1.025146,0.122192,0.314941,0,0,0
131,-203.450382,-29.908397,198.748092,-1.052368,0.260376,0.539185,0,0,0
134,-207.480916,-32.870229,204.274809,-0.984497,0.091919,0.472778,0,0,0
137,-209.29771,-31.78626,203.145038,-1.026123,0.126465,0.438843,0,0,0
140,-211.618321,-30.244275,210.717557,-0.953735,0.12085,0.502319,0,0,0
143,-218.824427,-30.961832,208.824427,-0.987915,-0.047119,0.35498,0,0,0
146,-218.59542,-31.221374,210.870229,-1.015503,-0.074951,0.333008,0,0,0
149,-204.351145,-34.549618,224.412214,-0.975464,-0.125122,0.464233,0,0,0
152,-216.870229,-30.21374,214.015267,-0.952271,-0.110474,0.335205,0,0,0
155,-208.900763,-30.70229,221.664122,-0.930786,-0.137451,0.483521,0,0,0
158,-216.748092,-26.351145,215.862595,-0.872681,-0.223877,0.431763,0,0,0
161,-212.687023,-31.694656,222.290076,-0.972412,-0.208984,0.418701,0,0,0
164,-207.847328,-35.450382,223.29771,-0.955811,-0.044312,0.529541,0,0,0
167,-215.114504,-40.152672,214.244275,-0.92688,-0.344971,0.304932,0,0,0
170,-220.091603,-47.450382,206.519084,-0.877075,-0.529663,0.319702,0,0,0
173,-221.587786,-51.450382,194.717557,-0.976685,-0.605835,0.251221,0,0,0
176,-204.778626,-57.755725,205.572519,-0.859375,-0.736328,0.269897,0,0,0
179,-183.038168,-50.305344,211.664122,-0.916992,-0.515625,0.429688,0,0,0
182,-170.015267,-50.641221,210.641221,-0.849976,-0.442383,0.400879,0,0,0
185,-176.610687,-53.664122,201.694656,-1.066162,-0.350464,0.408569,0,0,0
188,-174.732824,-52.59542,219.572519,-0.807251,-0.329712,0.383057,0,0,0
191,-173.419847,-42.076336,212.687023,-0.936523,-0.34314,0.436401,0,0,0
194,-174.274809,-41.969466,210.061069,-1.063354,-0.12207,0.377808,0,0,0
197,-184.778626,-47.328244,197.832061,-0.931763,-0.35437,0.341919,0,0,0
200,-189.435115,-42.442748,196.549618,-0.961304,-0.265747,0.393677,0,0,0
203,-183.465649,-42.473282,195.709924,-0.971069,-0.416748,0.28833,0,0,0
206,-184.015267,-42.778626,188.870229,-1.005981,-0.447266,0.130005,0,0,0
209,-192.045802,-45.572519,180.70229,-0.841675,-0.719849,0.184814,0,0,0
212,-194.198473,-38.137405,180,-0.87854,-0.688965,0.422119,0,0,0
215,-190.59542,-38.198473,178.732824,-0.897827,-0.82605,0.343506,0,0,0
218,-169.221374,-38.625954,187.496183,-0.831787,-0.746094,0.527466,0,0,0
221,-161.938931,-36.442748,181.450382,-0.896851,-0.614624,0.426758,0,0,0
224,-159.465649,-33.282443,180.061069,-0.868164,-0.606934,0.374268,0,0,0
227,-158.320611,-35.618321,185.312977,-0.856689,-0.548218,0.41748,0,0,0
230,-153.145038,-34.763359,183.068702,-0.983643,-0.396973,0.284302,0,0,0
233,-152.580153,-33.664122,181.89313,-0.890503,-0.410522,0.308105,0,0,0
236,-162.641221,-34.854962,177.465649,-0.890625,-0.462769,0.418579,0,0,0
239,-171.755725,-29.908397,178.396947,-0.906006,-0.46106,0.571899,0,0,0
242,-166.580153,-30.442748,184.412214,-0.888306,-0.616455,0.317871,0,0,0
245,-172.21374,-31.877863,173.083969,-0.953003,-0.781128,0.236206,0,0,0
248,-170.992366,-32.229008,172.564885,-0.845947,-0.921753,0.393066,0,0,0
251,-160.290076,-27.389313,186.931298,-0.833496,-0.75769,0.590454,0,0,0
254,-155.78626,-25.236641,185.282443,-0.873901,-0.857178,0.348267,0,0,0
1,-150.656489,-26,183.587786,-0.821655,-0.968262,0.338745,0,0,0
4,-152.473282,-26.748092,178.10687,-0.820801,-1.194214,0.306641,0,0,0
7,-148.473282,-25.969466,181.480916,-0.815918,-1.030518,0.397583,0,0,0
10,-140.900763,-28.503817,182.916031,-0.81604,-1.17334,0.201172,0,0,0
13,-132.778626,-27.603053,177.496183,-0.735352,-1.375977,0.315918,0,0,0
16,-144.687023,-23.465649,163.419847,-0.740845,-1.377808,0.379883,0,0,0
19,-146.946565,-25.267176,157.419847,-0.75415,-1.546143,0.399414,0,0,0
22,-135.29771,-21.648855,154.916031,-0.69519,-1.518433,0.27771,0,0,0
25,-131.221374,-21.51145,142.687023,-0.771851,-1.526978,0.346924,0,0,0
28,-115.251908,-27.847328,153.908397,-0.709839,-1.493042,0.374268,0,0,0
31,-101.007634,-26.122137,154.580153,-0.700317,-1.21521,0.447754,0,0,0
34,-98.870229,-28.931298,161.541985,-0.744995,-1.164062,0.403687,0,0,0
37,-105.175573,-27.343511,156.198473,-0.822144,-1.111694,0.399658,0,0,0
40,-99.251908,-23.175573,164.335878,-0.839233,-1.046265,0.246948,0,0,0
43,-104.748092,-23.007634,153.282443,-0.782471,-1.205078,0.198853,0,0,0
46,-104.137405,-20.351145,151.083969,-0.818115,-1.081787,0.480347,0,0,0
49,-107.877863,-18.717557,148.48855,-0.755371,-1.297607,0.349731,0,0,0
52,-112.061069,-21.175573,145.526718,-0.808228,-1.490601,0.375732,0,0,0
55,-111.89313,-23.129771,146.351145,-0.763672,-1.578735,0.408081,0,0,0
58,-109.679389,-25.618321,134.473282,-0.720337,-1.848267,0.254272,0,0,0
61,-100.473282,-27.343511,132.274809,-0.724487,-1.921021,0.407959,0,0,0
64,-96.473282,-26.152672,125.175573,-0.691772,-1.970581,0.315186,0,0,0
67,-81.740458,-26.763359,120.045802,-0.63501,-2.207031,0.378296,0,0,0
70,-75.236641,-23.343511,108.152672,-0.776001,-2.134521,0.418457,0,0,0
73,-58.59542,-30.091603,110.900763,-0.595581,-2.309204,0.290771,0,0,0
76,-52.473282,-19.954198,90.671756,-0.658447,-2.416504,0.276489,0,0,0
79,-37.572519,-17.251908,80.503817,-0.636108,-2.461182,0.275513,0,0,0
82,-23.40458,-9.343511,76.412214,-0.708862,-2.240112,0.392822,0,0,0
85,-10,-12.229008,76.427481,-0.699463,-2.175415,0.321777,0,0,0
88,0.381679,-9.709924,68.80916,-0.672485,-2.157349,0.325439,0,0,0
91,-0.335878,-5.984733,56.152672,-0.727539,-2.002075,0.338623,0,0,0
94,1.29771,-7.694656,50.183206,-0.705322,-2.089111,0.299316,0,0,0
97,7.221374,-2.625954,45.908397,-0.767334,-1.971802,0.386841,0,0,0
100,27.343511,-5.587786,56.625954,-0.792847,-1.857056,0.390747,0,0,0
103,58.946565,-4.335878,77.267176,-0.836304,-1.567139,0.446655,0,0,0
106,112.70229,-4.122137,104.442748,-0.900146,-1.145142,0.562134,0,0,0
109,140.320611,-16.992366,127.374046,-0.892822,-0.633057,0.540527,0,0,0
112,146.21374,-21.29771,146.610687,-0.869995,-0.412598,0.549805,0,0,0
115,153.587786,-27.221374,161.526718,-0.86792,-0.458862,0.580078,0,0,0
118,164.21374,-28.229008,171.496183,-0.857422,-0.626953,0.588013,0,0,0
121,183.633588,-29.969466,184.610687,-0.883057,-0.755615,0.631348,0,0,0
124,218.641221,-30.961832,205.312977,-0.883667,-0.905762,0.61853,0,0,0
127,256.519084,-35.114504,227.709924,-0.838257,-1.122925,0.628418,0,0,0
130,294.748092,-36.381679,255.206107,-0.812744,-1.28064,0.523071,0,0,0
133,344.870229,-34.458015,273.877863,-0.820557,-1.285278,0.633667,0,0,0
136,389.78626,-31.129771,295.648855,-0.780029,-1.143066,0.599243,0,0,0
139,419.954198,-31.908397,311.328244,-0.771118,-1.149048,0.634033,0,0,0
142,477.587786,-25.770992,319.847328,-0.781738,-1.021851,0.609985,0,0,0
145,500.259542,-31.282443,327.450382,-0.776855,-1.068237,0.610596,0,0,0
148,500.259542,-28.442748,325.053435,-0.758911,-1.157959,0.722534,0,0,0
151,500.259542,-24.793893,317.709924,-0.779663,-1.118896,0.648193,0,0,0
154,500.259542,-16.80916,308.305344,-0.77002,-0.851685,0.27832,0,0,0
157,500.259542,24.48855,294.534351,-0.737793,-0.300415,-0.450562,0,0,0
160,453.923664,65.954198,290.900763,-1.263062,-0.180054,0.369995,0,0,0
163,348.885496,57.29771,268.580153,-1.05957,-1.193604,0.541748,0,0,0
166,309.969466,70.778626,207.572519,-0.904175,-1.742798,0.502686,0,0,0
169,241.267176,91.587786,133.816794,-0.99707,-1.957397,0.625977,0,0,0
172,215.236641,91.312977,90.70229,-1.080688,-1.922119,0.720581,0,0,0
175,202.519084,88.244275,62.625954,-1.026001,-1.823853,0.848511,0,0,0
178,196.519084,87.847328,43.587786,-0.920776,-1.830322,0.742798,0,0,0
181,185.374046,84.442748,20.396947,-0.942261,-1.900879,0.86145,0,0,0
184,184.931298,76.381679,2.274809,-0.985596,-1.783081,1.014893,0,0,0
187,204.473282,64.793893,3.679389,-0.845947,-1.612549,0.913696,0,0,0
190,208.076336,59.129771,-10.916031,-0.924683,-1.584351,0.827759,0,0,0
193,215.221374,51.389313,-20.335878,-0.862183,-1.439453,0.932373,0,0,0
196,209.862595,45.358779,-47.358779,-0.933472,-1.438232,0.842041,0,0,0
199,229.832061,36.70229,-41.374046,-0.829346,-0.927734,0.80835,0,0,0
202,232.656489,31.480916,-48.061069,-0.86853,-0.94165,0.711182,0,0,0
205,224.717557,27.267176,-64.625954,-0.927246,-0.656372,0.682983,0,0,0
208,232.412214,16.59542,-56.061069,-0.868042,-0.517212,0.619507,0,0,0
211,224.854962,15.740458,-60.549618,-0.837158,-0.352783,0.617798,0,0,0
214,220.351145,11.526718,-64.122137,-0.918091,-0.21228,0.667969,0,0,0
217,212.152672,5.114504,-76.80916,-0.908936,-0.362915,0.518677,0,0,0
220,202.793893,2.305344,-88.839695,-0.967285,-0.301758,0.564453,0,0,0
223,195.89313,-4.091603,-94.656489,-0.990234,-0.510132,0.593384,0,0,0
226,179.236641,-7.267176,-110.503817,-1.02478,-0.643433,0.560669,0,0,0
229,183.175573,-11.435115,-111.038168,-1.042847,-0.729248,0.647949,0,0,0
232,202.244275,-18.335878,-102.351145,-0.98877,-0.808105,0.641846,0,0,0
235,217.007634,-21.145038,-108.839695,-0.987915,-0.761597,0.54126,0,0,0
238,210.732824,-25.343511,-124.320611,-1.089722,-0.810547,0.574219,0,0,0
241,218.870229,-27.740458,-122.473282,-0.963379,-0.818726,0.677246,0,0,0
244,220.641221,-28.320611,-127.343511,-0.935303,-0.714111,0.679932,0,0,0
247,213.435115,-30.183206,-143.343511,-1.023193,-0.633423,0.666382,0,0,0
250,217.236641,-35.053435,-146.015267,-1.061279,-0.622925,0.585938,0,0,0
253,217.89313,-40.21374,-156.015267,-1.088989,-0.932495,0.53418,0,0,0
0,221.465649,-38.80916,-165.847328,-1.08252,-0.653198,0.481079,0,0,0
3,233.419847,-41.206107,-160.793893,-1.096069,-0.60437,0.551758,0,0,0
6,249.435115,-45.40458,-155.053435,-0.997681,-0.615356,0.530151,0,0,0
9,256.122137,-41.862595,-164.656489,-1.102539,-0.310913,0.498169,0,0,0
12,255.389313,-46.259542,-165.603053,-1.09668,-0.4104,0.351562,0,0,0
15,254.519084,-42.580153,-167.496183,-1.047607,-0.301025,0.448486,0,0,0
18,255.450382,-41.129771,-174.381679,-1.02356,-0.391235,0.480591,0,0,0
21,248.167939,-41.664122,-177.450382,-1.035889,-0.324585,0.422729,0,0,0
24,247.984733,-41.847328,-182.839695,-1.071533,-0.314087,0.397705,0,0,0
27,244.59542,-42.732824,-192.21374,-1.102539,-0.521118,0.44043,0,0,0
30,245.618321,-44.916031,-195.526718,-1.084473,-0.55249,0.448975,0,0,0
33,243.51145,-45.938931,-204.229008,-1.087769,-0.554932,0.474121,0,0,0
36,251.78626,-41.312977,-204.396947,-1.062134,-0.264526,0.493164,0,0,0
39,255.465649,-47.862595,-207.832061,-1.099121,-0.471436,0.411377,0,0,0
42,260.061069,-46.167939,-205.618321,-1.064453,-0.266357,0.425415,0,0,0
45,277.908397,-43.068702,-194.061069,-1.051514,-0.020264,0.386108,0,0,0
48,284.244275,-46.091603,-192.931298,-1.072754,-0.026855,0.325439,0,0,0
51,280.778626,-44.656489,-194.030534,-1.079712,0.216064,0.235107,0,0,0
54,273.389313,-48.091603,-201.465649,-1.089478,-0.05127,0.205078,0,0,0
57,273.236641,-44.381679,-200.580153,-1.055908,0.174561,0.237305,0,0,0
60,280.381679,-39.832061,-189.587786,-1.026855,0.256348,0.1604,0,0,0
63,270.549618,-41.923664,-200.351145,-1.062622,-0.013916,0.270386,0,0,0
66,252.48855,-44.503817,-228.778626,-1.092773,-0.260254,0.276123,0,0,0
69,251.816794,-41.770992,-223.267176,-1.080933,-0.077026,0.309814,0,0,0
72,273.740458,-39.725191,-202.519084,-1.056274,-0.042847,0.318726,0,0,0
75,283.541985,-38.335878,-199.755725,-1.073975,-0.04834,0.308228,0,0,0
78,295.709924,-42.610687,-203.587786,-1.115845,-0.060059,0.272827,0,0,0
81,300.442748,-44.748092,-200.748092,-1.092651,0.081909,0.214111,0,0,0
84,302.122137,-39.725191,-193.251908,-1.032959,0.469238,0.115601,0,0,0
87,314.21374,-35.526718,-172.931298,-1.033569,0.55542,0.142334,0,0,0
90,300.244275,-39.603053,-184.198473,-1.112305,0.352417,0.165771,0,0,0
93,293.282443,-40.641221,-191.328244,-1.071777,0.29187,0.209473,0,0,0
96,289.877863,-42.671756,-187.221374,-0.972046,0.241577,0.220947,0,0,0
99,281.908397,-37.29771,-193.648855,-1.056885,0.530884,0.18811,0,0,0
102,292.564885,-47.282443,-181.648855,-1.083374,0.151001,0.147461,0,0,0
105,301.007634,-45.40458,-171.419847,-0.974609,0.396729,0.255249,0,0,0
108,304.10687,-44.015267,-176.152672,-1.055176,0.483643,0.166626,0,0,0
111,295.877863,-49.526718,-177.618321,-1.09314,0.359375,0.146484,0,0,0
114,288.854962,-47.725191,-178.10687,-0.994385,0.399658,0.244263,0,0,0
117,266.732824,-48.824427,-190.503817,-1.123657,0.464111,0.154053,0,0,0
120,264.916031,-52.045802,-190.183206,-1.018555,0.206665,0.178955,0,0,0
123,263.801527,-49.160305,-193.19084,-1.073242,0.332031,0.165161,0,0,0
126,269.557252,-53.40458,-190.900763,-1.057007,0.221191,0.185791,0,0,0
129,274.748092,-48,-188.900763,-1.011475,0.476074,0.235718,0,0,0
132,284.10687,-50.305344,-185.312977,-1.033813,0.420898,0.203125,0,0,0
135,293.648855,-48.641221,-178.549618,-0.944824,0.626221,0.191284,0,0,0
138,280.045802,-48.564885,-186.900763,-1.055786,0.814453,0.094971,0,0,0
141,275.78626,-55.267176,-185.419847,-1.004395,0.453979,0.057739,0,0,0
144,262.015267,-51.389313,-194.427481,-0.965576,0.577393,0.20459,0,0,0
147,249.053435,-55.984733,-204.763359,-0.990845,0.27124,0.269653,0,0,0
150,251.816794,-55.129771,-200.748092,-0.935059,0.396362,0.320923,0,0,0
153,255.679389,-55.038168,-198.458015,-0.976196,0.587158,0.24646,0,0,0
156,261.099237,-60.21374,-190.137405,-0.962646,0.432861,0.295532,0,0,0
159,272.458015,-60.259542,-181.145038,-0.885864,0.714355,0.264771,0,0,0
162,264.442748,-70.70229,-196.564885,-0.962891,0.449341,0.227173,0,0,0
165,253.664122,-75.51145,-200.320611,-0.944336,0.634155,0.273071,0,0,0
168,245.877863,-81.053435,-199.053435,-0.917236,0.43689,0.313721,0,0,0
171,243.78626,-82.305344,-193.526718,-0.920898,0.568115,0.258423,0,0,0
174,252.59542,-86.21374,-188.80916,-0.932861,0.404297,0.272705,0,0,0
177,259.267176,-88.580153,-189.328244,-0.967285,0.411987,0.260254,0,0,0
180,277.343511,-85.557252,-175.29771,-0.946777,0.748169,0.11499,0,0,0
183,278.061069,-88.335878,-171.282443,-0.987671,0.870605,0.081421,0,0,0
186,276.641221,-88.015267,-163.801527,-0.972412,1.001099,0.070923,0,0,0
189,266.305344,-88.824427,-161.007634,-0.911133,0.906982,-0.003906,0,0,0
192,270.427481,-84.977099,-153.053435,-0.917969,1.125122,0.086426,0,0,0
195,261.251908,-85.877863,-153.801527,-0.947144,1.240723,-0.057495,0,0,0
198,244.671756,-89.877863,-160.946565,-0.967651,0.832275,0.081543,0,0,0
201,224.244275,-88.580153,-175.908397,-0.93689,0.8573,0.125122,0,0,0
204,216.274809,-93.129771,-180.305344,-0.98999,0.611572,0.197632,0,0,0
207,222.10687,-94.396947,-179.007634,-0.930664,0.542114,0.217529,0,0,0
210,222.137405,-100.641221,-189.709924,-0.994019,0.23999,0.338135,0,0,0
213,224.076336,-106.412214,-198.21374,-1.008423,0.203979,0.368774,0,0,0
216,233.282443,-106.992366,-193.816794,-0.925415,0.192261,0.352173,0,0,0
219,242.580153,-107.954198,-196.610687,-0.983521,0.257812,0.350952,0,0,0
222,249.908397,-109.51145,-191.89313,-0.978149,0.426147,0.256958,0,0,0
225,267.526718,-103.267176,-161.862595,-0.910034,0.603516,0.241577,0,0,0
228,277.801527,-101.648855,-168.442748,-0.956299,0.555176,0.17041,0,0,0
231,273.770992,-93.877863,-179.099237,-0.900757,0.821411,0.118408,0,0,0
234,263.984733,-90.641221,-176.122137,-0.953125,0.857544,0.128906,0,0,0
237,261.282443,-94.229008,-169.251908,-1.02771,0.93396,0.086304,0,0,0
240,268.152672,-98.137405,-153.129771,-0.91333,1.022949,0.134277,0,0,0
243,258.030534,-98.824427,-159.038168,-0.955078,1.105469,0.073486,0,0,0
246,269.328244,-92.229008,-147.572519,-0.834351,1.390259,0.025757,0,0,0
249,258.244275,-91.984733,-149.374046,-0.972778,1.418457,-0.064087,0,0,0
252,244.244275,-91.175573,-151.419847,-0.922607,1.454224,-0.133911,0,0,0
255,214.229008,-90.48855,-161.236641,-0.961914,1.396851,-0.04187,0,0,0
2,195.19084,-91.496183,-165.664122,-0.917969,1.147461,-0.071655,0,0,0
5,173.557252,-90.21374,-176.427481,-0.914307,1.012207,0.10144,0,0,0
8,172.519084,-85.358779,-170.137405,-0.853271,1.054932,0.165039,0,0,0
11,181.374046,-82.748092,-152.137405,-0.820923,0.901001,0.250977,0,0,0
14,183.847328,-74.244275,-163.328244,-0.80127,1.124023,0.200928,0,0,0
17,178.229008,-76.793893,-137.664122,-0.856323,1.033081,0.193481,0,0,0
20,186.854962,-79.160305,-130.229008,-0.844482,0.839233,0.10022,0,0,0
23,186,-62.564885,-155.89313,-0.731567,1.3479,0.170898,0,0,0
26,160.519084,-68.335878,-149.984733,-0.893677,1.225952,0.118164,0,0,0
29,164.70229,-72.167939,-119.908397,-0.909302,1.204712,0.146973,0,0,0
32,166.534351,-80.763359,-132.870229,-0.868896,1.082397,0.074219,0,0,0
35,170.671756,-71.694656,-118.870229,-0.756226,1.40271,0.053955,0,0,0
38,160.167939,-64.946565,-113.068702,-0.803711,1.537842,0.114502,0,0,0
41,147.038168,-62.122137,-109.770992,-0.8125,1.700195,-0.039673,0,0,0
44,126.076336,-64.015267,-119.969466,-0.817505,1.293701,0.043457,0,0,0
47,118.610687,-58.656489,-107.877863,-0.740356,1.703979,-0.027588,0,0,0
50,112.320611,-58.70229,-96.305344,-0.84314,1.500366,-0.012939,0,0,0
53,106.396947,-59.343511,-95.099237,-0.855347,1.535156,0.059082,0,0,0
56,109.007634,-53.633588,-81.587786,-0.746094,1.413086,0.123047,0,0,0
59,90.59542,-54.091603,-92.122137,-0.835815,1.481689,0.083862,0,0,0
62,80.992366,-52.70229,-86.198473,-0.814087,1.342285,0.136597,0,0,0
65,68.534351,-48.748092,-87.099237,-0.82959,1.35083,0.118652,0,0,0
68,75.251908,-50.458015,-78.167939,-0.814209,0.926025,0.251099,0,0,0
71,65.572519,-47.328244,-74.564885,-0.885986,1.275391,0.227783,0,0,0
74,69.022901,-49.587786,-69.679389,-0.817627,1.02356,0.147217,0,0,0
77,68.687023,-48.916031,-69.450382,-0.839355,0.968994,0.25769,0,0,0
80,54.10687,-51.923664,-80.473282,-0.873047,0.886963,0.260376,0,0,0
83,55.053435,-50.167939,-66.351145,-0.778687,1.016113,0.190552,0,0,0
86,50.167939,-43.755725,-59.572519,-0.825073,1.276245,0.193359,0,0,0
89,59.389313,-46.854962,-56.900763,-0.839844,1.179199,0.172974,0,0,0
92,46.320611,-48.80916,-66.412214,-0.847168,1.106812,0.18396,0,0,0
95,39.236641,-49.648855,-61.755725,-0.833008,1.215576,0.136597,0,0,0
98,42.045802,-50.030534,-51.954198,-0.830811,1.215332,0.127319,0,0,0
101,44.366412,-46.687023,-47.099237,-0.810669,1.390503,0.14978,0,0,0
104,40.793893,-48.229008,-41.78626,-0.802612,1.396118,0.137817,0,0,0
107,26.961832,-49.526718,-44.519084,-0.81543,1.55603,0.08313,0,0,0
110,13.572519,-53.083969,-42.885496,-0.801758,1.546997,0.088989,0,0,0
113,-8.229008,-60.748092,-48.961832,-0.767578,1.570923,0.075806,0,0,0
116,-34.763359,-70.992366,-60.870229,-0.803589,1.448853,0.138306,0,0,0
119,-73.053435,-83.343511,-75.725191,-0.82019,1.2677,0.193726,0,0,0
122,-102.870229,-97.496183,-94.503817,-0.8396,1.015137,0.27478,0,0,0
125,-128.091603,-114.351145,-115.29771,-0.859741,0.791016,0.358521,0,0,0
128,-146.015267,-123.114504,-131.053435,-0.842407,0.53833,0.388428,0,0,0
131,-152.870229,-131.267176,-144.137405,-0.846191,0.421753,0.450806,0,0,0
134,-153.938931,-137.694656,-153.816794,-0.846313,0.367554,0.516968,0,0,0
137,-158.961832,-144.396947,-161.969466,-0.849731,0.406006,0.468506,0,0,0
140,-166.824427,-151.740458,-168.473282,-0.856567,0.491089,0.439819,0,0,0
143,-176.198473,-161.175573,-176.977099,-0.832031,0.561279,0.472656,0,0,0
146,-195.755725,-168.519084,-187.526718,-0.815308,0.692993,0.380981,0,0,0
149,-214.671756,-173.358779,-196.687023,-0.79126,0.76355,0.397583,0,0,0
152,-238.885496,-177.206107,-208.442748,-0.782349,0.865234,0.387085,0,0,0
155,-275.145038,-180.091603,-219.450382,-0.784668,0.98584,0.339355,0,0,0
158,-317.526718,-182.656489,-230.366412,-0.809937,1.126099,0.245728,0,0,0
161,-357.007634,-178.10687,-234.030534,-0.744873,1.179932,0.269775,0,0,0
164,-416.503817,-177.419847,-245.89313,-0.821045,1.30957,0.243896,0,0,0
167,-465.068702,-172.534351,-256.122137,-0.802979,1.395264,0.276733,0,0,0
170,-500.244275,-166.778626,-268.549618,-0.816406,1.396118,0.322754,0,0,0
173,-500.244275,-164.870229,-283.114504,-0.811279,1.410767,0.335571,0,0,0
176,-500.244275,-143.19084,-285.618321,-0.824341,1.472656,0.239746,0,0,0
179,-500.244275,-104.183206,-272.351145,-0.833862,1.209351,-0.046509,0,0,0
182,-500.244275,-62.961832,-250.656489,-1.04541,0.939697,0.535034,0,0,0
185,-500.244275,-35.435115,-214.641221,-1.079834,1.106201,0.350708,0,0,0
188,-429.007634,-9.603053,-154.061069,-1.059326,1.069458,0.57959,0,0,0
191,-410.916031,-6.824427,-128.80916,-1.251587,1.223633,0.376953,0,0,0
194,-279.312977,9.908397,-79.679389,-1.078491,1.494629,0.581909,0,0,0
197,-249.908397,11.206107,-45.847328,-1.292603,1.921509,0.232666,0,0,0
200,-234.229008,16.030534,-16.167939,-1.219727,2.03772,0.594727,0,0,0
203,-229.78626,27.435115,14.916031,-1.161255,1.954834,0.743652,0,0,0
206,-214.961832,19.51145,53.206107,-1.201172,1.76123,0.368896,0,0,0
209,-183.358779,25.465649,89.29771,-1.144287,1.612305,0.481934,0,0,0
212,-168.80916,24.183206,105.267176,-1.121216,1.36377,0.462646,0,0,0
215,-177.465649,23.725191,108.59542,-1.134888,1.264282,0.321899,0,0,0
218,-185.603053,20.48855,124.671756,-1.018555,0.972046,0.508423,0,0,0
221,-194.167939,28.229008,127.496183,-1.031616,0.91626,0.477905,0,0,0
224,-193.740458,24.916031,137.557252,-1.009155,0.690674,0.404297,0,0,0
227,-189.740458,28.625954,144.152672,-0.93042,0.619385,0.490723,0,0,0
230,-189.312977,28.10687,140.625954,-0.950562,0.600098,0.445557,0,0,0
233,-190.48855,32.152672,148.167939,-0.93103,0.808472,0.501343,0,0,0
236,-207.221374,31.236641,146.70229,-0.978516,0.923584,0.323364,0,0,0
239,-219.251908,25.526718,153.541985,-0.889771,0.847046,0.580566,0,0,0
242,-242.870229,26.70229,141.954198,-1.053955,0.834595,0.473511,0,0,0
245,-252.763359,27.938931,150.717557,-1.044434,0.861206,0.353516,0,0,0
248,-249.251908,22.534351,162.10687,-1.099121,0.873657,0.372314,0,0,0
251,-250.946565,26.244275,165.801527,-1.02832,0.851318,0.478516,0,0,0
254,-251.053435,33.343511,170.80916,-1.017334,0.848511,0.397827,0,0,0
1,-239.923664,39.099237,185.29771,-1.125854,0.844482,0.488525,0,0,0
4,-236.335878,34.442748,186.137405,-1.160889,0.86499,0.403687,0,0,0
7,-242.870229,33.709924,194.503817,-1.181885,1.121094,0.353027,0,0,0
10,-256.48855,37.374046,197.374046,-1.11438,1.069092,0.251587,0,0,0
13,-260.320611,38.320611,208.748092,-1.04126,0.746704,0.393677,0,0,0
16,-271.236641,46.244275,209.877863,-1.071655,0.815063,0.365967,0,0,0
19,-271.160305,46.80916,217.877863,-1.150635,0.683472,0.415894,0,0,0
22,-280.21374,37.465649,219.664122,-1.130737,0.561646,0.365723,0,0,0
25,-288.793893,41.435115,216.687023,-1.035034,0.612427,0.307129,0,0,0
28,-295.374046,45.908397,214.015267,-1.128784,0.59314,0.32959,0,0,0
31,-294.70229,39.78626,217.816794,-1.068848,0.598389,0.380249,0,0,0
34,-306.091603,42.458015,214.961832,-1.039062,0.605103,0.272461,0,0,0
37,-314.946565,33.755725,211.328244,-1.125122,0.357666,0.337036,0,0,0
40,-320.625954,28.244275,214.030534,-1.098022,0.202515,0.422607,0,0,0
43,-317.572519,20.48855,214.015267,-1.038574,0.055298,0.452026,0,0,0
46,-318.503817,18.763359,203.29771,-0.993408,-0.075317,0.324951,0,0,0
49,-315.877863,20.076336,200.10687,-0.992554,-0.049072,0.374146,0,0,0
52,-318.931298,18.870229,194.198473,-0.997437,-0.134644,0.392334,0,0,0
55,-315.51145,14.717557,188.396947,-1.005493,-0.120117,0.383789,0,0,0
58,-314.366412,13.648855,185.877863,-0.971436,-0.094604,0.421631,0,0,0
61,-308.625954,7.954198,187.374046,-1.045532,-0.081665,0.304932,0,0,0
64,-294.427481,0.748092,190.656489,-0.975952,-0.0979,0.454224,0,0,0
67,-294.870229,-1.89313,183.633588,-1.006226,-0.086792,0.334961,0,0,0
70,-290.229008,-3.725191,183.526718,-0.985474,-0.019043,0.421875,0,0,0
73,-285.89313,-5.908397,183.969466,-0.989136,0.038696,0.423096,0,0,0
76,-278.412214,-9.129771,184.824427,-1.00708,0.05127,0.472534,0,0,0
79,-278.320611,-8.030534,176.70229,-0.987549,0.089233,0.396362,0,0,0
82,-272.580153,-8.778626,180.183206,-1.02124,0.141602,0.433716,0,0,0
85,-257.938931,-7.938931,192.854962,-1.097534,0.387939,0.471802,0,0,0
88,-255.587786,-12.274809,195.068702,-1.075317,0.460693,0.27356,0,0,0
91,-260.183206,-11.053435,201.236641,-1.077026,0.476929,0.444092,0,0,0
94,-259.541985,-10.244275,210.229008,-1.078979,0.370483,0.491943,0,0,0
97,-268.732824,-11.267176,208.900763,-1.044922,0.315796,0.427124,0,0,0
100,-279.862595,-8.259542,207.267176,-1.057007,0.163818,0.348022,0,0,0
103,-280.290076,-9.740458,212.625954,-0.990479,0.040771,0.429688,0,0,0
106,-284.122137,-1.450382,209.236641,-1.015991,0.034424,0.434692,0,0,0
109,-271.969466,-4.870229,209.633588,-0.97937,-0.042358,0.348755,0,0,0
112,-274.80916,-4.290076,203.572519,-0.94519,-0.11084,0.443359,0,0,0
115,-277.633588,-4.335878,203.419847,-1.037598,0.067261,0.388306,0,0,0
118,-275.221374,-7.954198,204.793893,-1.032104,-0.012695,0.28125,0,0,0
121,-278.030534,-10.580153,205.099237,-1.023682,-0.079346,0.295898,0,0,0
124,-277.435115,-2.70229,211.29771,-1.069458,0.130981,0.418213,0,0,0
127,-280.854962,-7.343511,203.908397,-0.96106,-0.204712,0.286377,0,0,0
130,-284.931298,2.885496,199.175573,-1.093506,-0.030396,0.351685,0,0,0
133,-272.351145,-4.916031,207.129771,-1.046997,-0.213989,0.22876,0,0,0
136,-266.366412,0.549618,212.351145,-1.012695,-0.062988,0.32605,0,0,0
139,-255.007634,-2.458015,220.091603,-1.030884,-0.088867,0.342651,0,0,0
142,-259.603053,7.29771,214.625954,-1.077637,0.201172,0.308105,0,0,0
145,-250.839695,1.29771,227.648855,-1.061646,0.028076,0.321533,0,0,0
148,-258.580153,-1.648855,225.358779,-1.086548,0.077881,0.186768,0,0,0
151,-271.832061,-2.442748,220.244275,-1.050293,0.012207,0.213135,0,0,0
154,-279.908397,3.29771,223.389313,-1.083862,0.137329,0.273071,0,0,0
157,-280.458015,-8.900763,222.48855,-1.100586,-0.036621,0.208984,0,0,0
160,-284.503817,-6.198473,218.320611,-1.010742,0.038086,0.290894,0,0,0
163,-276.763359,-3.679389,239.022901,-1.096924,0.330688,0.534912,0,0,0
166,-279.877863,-6.366412,234.335878,-1.074585,0.241699,0.304688,0,0,0
169,-296.503817,-2.793893,232.580153,-1.077637,0.336548,0.285278,0,0,0
172,-305.801527,-6.427481,238.122137,-1.150513,0.082642,0.19519,0,0,0
175,-310.320611,-3.358779,245.923664,-1.111084,0.127563,0.18811,0,0,0
178,-310.198473,0.641221,248.763359,-1.105591,0.003174,0.140869,0,0,0
181,-307.053435,0.015267,250.381679,-1.122803,-0.164917,0.077759,0,0,0
184,-305.206107,5.78626,256.396947,-1.088501,-0.02417,0.259766,0,0,0
187,-302.351145,4.839695,262.931298,-1.191162,0.045288,0.155884,0,0,0
190,-299.832061,6.091603,269.496183,-1.162231,0.00647,0.057129,0,0,0
193,-299.832061,-3.587786,273.099237,-1.054688,-0.235718,0.173462,0,0,0
196,-310.854962,6.183206,271.022901,-1.094727,-0.068726,0.46875,0,0,0
199,-317.038168,-0.519084,267.480916,-1.114258,-0.360474,0.122803,0,0,0
202,-319.145038,-6.259542,263.877863,-1.053467,-0.677612,0.168457,0,0,0
205,-315.877863,-7.343511,257.694656,-1.080322,-0.742065,0.177002,0,0,0
208,-307.435115,-8.916031,258.793893,-0.976074,-0.883667,0.248291,0,0,0
211,-304.946565,-6.412214,245.801527,-0.966187,-0.980469,0.126953,0,0,0
214,-298.992366,-10.519084,238.396947,-0.965332,-1.104736,0.167969,0,0,0
217,-298.748092,-9.969466,232.656489,-0.908691,-1.085571,0.239502,0,0,0
220,-287.099237,-12.091603,231.282443,-0.922485,-1.109741,0.207275,0,0,0
223,-266.167939,-11.740458,237.328244,-0.887207,-1.005493,0.452759,0,0,0
226,-257.175573,-14.778626,232.274809,-0.936279,-0.796387,0.261963,0,0,0
229,-245.053435,-16.473282,238.412214,-0.938477,-0.643066,0.348267,0,0,0
232,-239.007634,-15.725191,243.572519,-0.938477,-0.590576,0.376831,0,0,0
235,-243.450382,-16.015267,234.366412,-1.067261,-0.447144,0.204834,0,0,0
238,-251.236641,-21.450382,233.465649,-0.979614,-0.588623,0.174927,0,0,0
241,-252.458015,-22.870229,234.442748,-0.948853,-0.700439,0.348389,0,0,0
244,-261.129771,-23.755725,217.877863,-0.909058,-1.00769,0.175659,0,0,0
247,-263.633588,-22.80916,208.946565,-0.903809,-1.1521,0.3479,0,0,0
250,-253.312977,-27.343511,210.748092,-0.866821,-1.416016,0.363159,0,0,0
253,-243.435115,-26.625954,204.824427,-0.85144,-1.416016,0.309326,0,0,0
0,-228.778626,-30.610687,194.351145,-0.851562,-1.545044,0.156494,0,0,0
3,-214.366412,-32.824427,190.519084,-0.781494,-1.506226,0.379517,0,0,0
6,-216.961832,-34.320611,171.572519,-0.810059,-1.653198,0.139282,0,0,0
9,-205.007634,-38.320611,168.351145,-0.814941,-1.634155,0.317505,0,0,0
12,-189.938931,-41.770992,165.129771,-0.784668,-1.671997,0.348145,0,0,0
15,-184.885496,-38.854962,151.282443,-0.797729,-1.543579,0.277466,0,0,0
18,-178.977099,-41.267176,141.78626,-0.846313,-1.552002,0.300415,0,0,0
21,-173.496183,-43.862595,140.931298,-0.870972,-1.363037,0.275146,0,0,0
24,-167.496183,-44.534351,138.839695,-0.776855,-1.492554,0.216064,0,0,0
27,-157.358779,-44.152672,135.083969,-0.856934,-1.224243,0.323364,0,0,0
30,-157.832061,-43.328244,127.618321,-0.838623,-1.266479,0.269409,0,0,0
33,-145.450382,-46.961832,138.839695,-0.881958,-1.051636,0.403564,0,0,0
36,-144.381679,-44.137405,133.78626,-0.951416,-0.990234,0.234619,0,0,0
39,-145.847328,-46.916031,136.305344,-0.805054,-1.140625,0.263672,0,0,0
42,-149.145038,-40.305344,130.21374,-0.881836,-1.123779,0.4375,0,0,0
45,-148.885496,-39.648855,131.068702,-0.869507,-1.095459,0.359741,0,0,0
48,-146.80916,-40.076336,127.129771,-0.904907,-1.290649,0.27356,0,0,0
51,-136.351145,-37.160305,133.29771,-0.822754,-1.317383,0.368652,0,0,0
54,-135.923664,-35.801527,122.351145,-0.88916,-1.305786,0.333008,0,0,0
57,-133.465649,-35.694656,130.946565,-0.777588,-1.36145,0.369873,0,0,0
60,-134.183206,-30.137405,119.312977,-0.9198,-1.464478,0.376953,0,0,0
63,-131.725191,-31.969466,121.679389,-0.822388,-1.529297,0.211182,0,0,0
66,-123.221374,-28.931298,117.068702,-0.844482,-1.658813,0.293457,0,0,0
69,-120.580153,-28.610687,112.167939,-0.79248,-1.827026,0.215332,0,0,0
72,-105.923664,-31.053435,114.946565,-0.818237,-1.755615,0.381958,0,0,0
75,-103.648855,-27.19084,103.40458,-0.742798,-1.904419,0.361084,0,0,0
78,-100.870229,-21.358779,100.977099,-0.699341,-1.941284,0.359619,0,0,0
81,-94.793893,-23.450382,90.198473,-0.781738,-2.106445,0.30896,0,0,0
84,-88.427481,-22.381679,78.625954,-0.729492,-2.236694,0.373413,0,0,0
87,-66.534351,-18.580153,82.48855,-0.631836,-2.335083,0.454102,0,0,0
90,-51.740458,-10.274809,64.229008,-0.794067,-2.241577,0.334229,0,0,0
