Packet number,Gyroscope X (deg/s),Gyroscope Y (deg/s),Gyroscope Z (deg/s),Accelerometer X (g),Accelerometer Y (g),Accelerometer Z (g),Magnetometer X (G),Magnetometer Y (G),Magnetometer Z (G)
53,0.80916,4.671756,1.206107,-0.678101,0.011353,0.726562,0,0,0
56,1.007634,4.717557,1.709924,-0.674805,0.016235,0.731079,0,0,0
59,1.206107,4.80916,2.015267,-0.678467,0.016724,0.732178,0,0,0
62,1.557252,4.961832,2.198473,-0.678345,0.013916,0.731567,0,0,0
65,1.908397,5.175573,2.656489,-0.674927,0.011719,0.730835,0,0,0
68,2.305344,5.328244,2.977099,-0.678101,0.0177,0.733154,0,0,0
71,2.641221,5.389313,3.236641,-0.67749,0.016357,0.736206,0,0,0
74,2.916031,5.679389,3.526718,-0.678467,0.021362,0.73999,0,0,0
77,3.099237,5.78626,3.679389,-0.678101,0.021973,0.736572,0,0,0
80,3.29771,6.015267,4,-0.676758,0.016846,0.735474,0,0,0
83,3.526718,6.21374,4.21374,-0.677002,0.018188,0.737183,0,0,0
86,3.770992,6.274809,4.671756,-0.678711,0.01709,0.738647,0,0,0
89,4.122137,6.335878,4.916031,-0.680908,0.015747,0.735229,0,0,0
92,4.549618,6.610687,5.29771,-0.67749,0.016479,0.733643,0,0,0
95,4.732824,6.870229,5.648855,-0.677124,0.020874,0.736328,0,0,0
98,5.129771,6.931298,5.862595,-0.680908,0.021606,0.733521,0,0,0
101,5.053435,7.099237,6.030534,-0.67688,0.025269,0.736328,0,0,0
104,5.175573,7.145038,6.198473,-0.678955,0.025391,0.734253,0,0,0
107,5.358779,7.236641,6.167939,-0.678711,0.028198,0.734009,0,0,0
110,5.251908,7.160305,6.091603,-0.679688,0.031372,0.733521,0,0,0
113,5.19084,7.251908,6.152672,-0.678955,0.030029,0.729126,0,0,0
116,4.854962,7.221374,6.030534,-0.678467,0.02771,0.734741,0,0,0
119,5.068702,7.19084,6.061069,-0.681763,0.032593,0.731567,0,0,0
122,4.870229,7.206107,6.015267,-0.684814,0.027954,0.733032,0,0,0
125,5.068702,7.160305,6.137405,-0.682861,0.027954,0.729248,0,0,0
128,5.206107,7.221374,6.045802,-0.683716,0.027222,0.733521,0,0,0
131,5.099237,7.114504,6.10687,-0.682983,0.024902,0.72876,0,0,0
134,5.19084,6.946565,6.045802,-0.686523,0.026367,0.730713,0,0,0
137,5.450382,6.854962,6.030534,-0.683228,0.030518,0.727417,0,0,0
140,5.267176,6.717557,5.877863,-0.685303,0.036499,0.725464,0,0,0
143,5.145038,6.59542,5.740458,-0.687256,0.033813,0.72876,0,0,0
146,5.022901,6.458015,5.603053,-0.686646,0.035034,0.730469,0,0,0
149,4.961832,6.351145,5.343511,-0.684692,0.036011,0.727539,0,0,0
152,4.534351,6.152672,5.175573,-0.682983,0.037964,0.728516,0,0,0
155,4.396947,5.984733,4.80916,-0.683716,0.033569,0.722534,0,0,0
158,4.198473,6.030534,4.610687,-0.684937,0.033813,0.723145,0,0,0
161,3.984733,5.648855,4.519084,-0.684326,0.034302,0.724365,0,0,0
164,4.167939,5.648855,4.259542,-0.684326,0.034912,0.726807,0,0,0
167,4,5.40458,4,-0.684204,0.035645,0.726929,0,0,0
170,3.78626,5.206107,3.923664,-0.688477,0.039185,0.731689,0,0,0
173,3.572519,5.053435,3.526718,-0.686157,0.04187,0.728027,0,0,0
176,3.022901,4.824427,3.267176,-0.688232,0.046875,0.727783,0,0,0
179,2.641221,4.580153,2.946565,-0.689575,0.045166,0.722168,0,0,0
182,2.366412,4.503817,2.564885,-0.689453,0.045532,0.72168,0,0,0
185,1.847328,4.167939,2.229008,-0.687012,0.045288,0.720459,0,0,0
188,1.374046,3.847328,1.755725,-0.690308,0.04541,0.724609,0,0,0
191,1.129771,3.526718,1.312977,-0.689819,0.038208,0.726318,0,0,0
194,0.717557,3.40458,1.114504,-0.69165,0.040161,0.72583,0,0,0
197,0.610687,2.992366,0.900763,-0.693481,0.037598,0.725586,0,0,0
200,0.442748,2.793893,0.564885,-0.695679,0.038208,0.724854,0,0,0
203,0.259542,2.625954,0.351145,-0.695068,0.041138,0.720459,0,0,0
206,0.122137,2.396947,0.10687,-0.693359,0.038696,0.72229,0,0,0
209,-0.229008,2.259542,-0.076336,-0.693848,0.035889,0.721191,0,0,0
212,-0.183206,1.954198,-0.198473,-0.689697,0.038452,0.720215,0,0,0
215,-0.458015,1.755725,-0.351145,-0.68811,0.036377,0.719727,0,0,0
218,-0.274809,1.541985,-0.503817,-0.686035,0.034912,0.719604,0,0,0
221,-0.259542,1.221374,-0.610687,-0.689575,0.0354,0.71936,0,0,0
224,-0.625954,1.022901,-0.793893,-0.689209,0.038818,0.716431,0,0,0
227,-0.824427,0.748092,-0.931298,-0.685181,0.035522,0.721558,0,0,0
230,-0.992366,0.564885,-1.328244,-0.687012,0.03833,0.718994,0,0,0
233,-1.221374,0.229008,-1.343511,-0.685913,0.03772,0.718872,0,0,0
236,-1.465649,0.076336,-1.465649,-0.690186,0.038086,0.721802,0,0,0
239,-1.587786,-0.320611,-1.78626,-0.689941,0.037842,0.723145,0,0,0
242,-1.770992,-0.59542,-1.938931,-0.691528,0.035156,0.726196,0,0,0
245,-1.755725,-0.748092,-2.21374,-0.692261,0.037476,0.723511,0,0,0
248,-2.198473,-0.992366,-2.183206,-0.692261,0.032837,0.722778,0,0,0
251,-2.137405,-1.236641,-2.259542,-0.694336,0.030273,0.723755,0,0,0
254,-2.122137,-1.389313,-2.167939,-0.696167,0.026978,0.72522,0,0,0
1,-1.908397,-1.557252,-2.366412,-0.69165,0.027588,0.724854,0,0,0
4,-1.694656,-1.78626,-2.122137,-0.693481,0.024414,0.724487,0,0,0
7,-1.496183,-1.801527,-2.274809,-0.693237,0.030029,0.72644,0,0,0
10,-1.389313,-2.198473,-2.167939,-0.694336,0.028564,0.724609,0,0,0
13,-1.419847,-2.396947,-2.015267,-0.69043,0.033203,0.7229,0,0,0
16,-1.206107,-2.519084,-2.091603,-0.692261,0.030151,0.725342,0,0,0
19,-1.29771,-2.671756,-2.167939,-0.689697,0.031128,0.723755,0,0,0
22,-1.343511,-2.839695,-2.198473,-0.6875,0.033325,0.719971,0,0,0
25,-1.419847,-3.099237,-2.335878,-0.69043,0.029785,0.721558,0,0,0
28,-1.496183,-3.236641,-2.229008,-0.689819,0.029419,0.724365,0,0,0
31,-1.19084,-3.435115,-2.305344,-0.688599,0.027588,0.719482,0,0,0
34,-1.114504,-3.557252,-2.198473,-0.687378,0.026855,0.722534,0,0,0
37,-0.961832,-3.679389,-2.137405,-0.68811,0.028076,0.725464,0,0,0
40,-0.824427,-3.801527,-2.076336,-0.691284,0.028809,0.725708,0,0,0
43,-0.717557,-3.847328,-2.061069,-0.690552,0.025635,0.726929,0,0,0
46,-0.641221,-3.984733,-1.984733,-0.684814,0.023438,0.726562,0,0,0
49,-0.427481,-4.137405,-1.740458,-0.686279,0.026367,0.72937,0,0,0
52,-0.183206,-4.320611,-1.755725,-0.686646,0.025635,0.729004,0,0,0
55,-0.21374,-4.198473,-1.740458,-0.686157,0.026367,0.726318,0,0,0
58,-0.015267,-4.427481,-1.541985,-0.685547,0.027954,0.727173,0,0,0
61,0.152672,-4.427481,-1.496183,-0.689941,0.029175,0.730835,0,0,0
64,0.412214,-4.549618,-1.541985,-0.687744,0.031738,0.729004,0,0,0
67,0.10687,-4.549618,-1.435115,-0.681641,0.031128,0.729492,0,0,0
70,0.198473,-4.717557,-1.465649,-0.687622,0.03186,0.732666,0,0,0
73,0.076336,-4.70229,-1.358779,-0.680542,0.029907,0.729004,0,0,0
76,0.015267,-4.732824,-1.221374,-0.682129,0.025391,0.729614,0,0,0
79,0.274809,-4.717557,-1.114504,-0.678223,0.023193,0.732666,0,0,0
82,0.59542,-4.778626,-1.007634,-0.681519,0.020264,0.7323,0,0,0
85,0.977099,-4.778626,-0.732824,-0.682861,0.022339,0.730957,0,0,0
88,1.358779,-4.778626,-0.244275,-0.681152,0.022827,0.733398,0,0,0
91,1.557252,-4.80916,-0.167939,-0.678467,0.027588,0.730591,0,0,0
94,1.541985,-4.824427,-0.091603,-0.678955,0.034302,0.729004,0,0,0
97,1.374046,-4.885496,0.137405,-0.678955,0.031494,0.730591,0,0,0
100,1.450382,-4.916031,-0.137405,-0.67688,0.033691,0.730957,0,0,0
103,0.992366,-4.824427,-0.137405,-0.679077,0.032715,0.733521,0,0,0
106,1.022901,-4.70229,-0.10687,-0.67981,0.030396,0.732544,0,0,0
109,1.007634,-4.70229,-0.198473,-0.678955,0.029785,0.7323,0,0,0
112,1.206107,-4.549618,0.045802,-0.680786,0.026001,0.734741,0,0,0
115,1.175573,-4.503817,0.10687,-0.682129,0.026855,0.733643,0,0,0
118,1.19084,-4.381679,0.122137,-0.682007,0.030151,0.73291,0,0,0
121,1.419847,-4.259542,0.366412,-0.683838,0.026367,0.733398,0,0,0
124,1.40458,-4.244275,0.473282,-0.680908,0.025146,0.733765,0,0,0
127,1.419847,-4.122137,0.610687,-0.683594,0.030518,0.731689,0,0,0
130,1.526718,-4.030534,0.687023,-0.682373,0.032227,0.729004,0,0,0
133,1.40458,-4.061069,0.610687,-0.678955,0.032837,0.727661,0,0,0
136,1.236641,-3.938931,0.519084,-0.68335,0.031128,0.733154,0,0,0
139,1.129771,-4.015267,0.48855,-0.684204,0.030396,0.730469,0,0,0
142,1.114504,-3.969466,0.534351,-0.682739,0.033081,0.730835,0,0,0
145,1.435115,-4.030534,0.473282,-0.680298,0.031982,0.729736,0,0,0
148,1.51145,-3.862595,0.503817,-0.683716,0.027588,0.730835,0,0,0
151,1.450382,-3.801527,0.625954,-0.680664,0.030884,0.732544,0,0,0
154,1.450382,-3.862595,0.59542,-0.681763,0.033325,0.730225,0,0,0
157,1.557252,-3.709924,0.687023,-0.681274,0.027832,0.729126,0,0,0
160,1.51145,-3.679389,0.610687,-0.681885,0.03186,0.729248,0,0,0
163,1.587786,-3.633588,0.70229,-0.687012,0.031006,0.731689,0,0,0
166,1.526718,-3.633588,0.687023,-0.682617,0.031616,0.730225,0,0,0
169,1.51145,-3.740458,0.656489,-0.682861,0.030273,0.732056,0,0,0
172,1.480916,-3.618321,0.610687,-0.685181,0.030029,0.735229,0,0,0
175,1.664122,-3.679389,0.70229,-0.68396,0.030762,0.73291,0,0,0
178,1.709924,-3.664122,0.59542,-0.684448,0.028564,0.730835,0,0,0
181,1.526718,-3.618321,0.671756,-0.683228,0.033203,0.734131,0,0,0
184,1.587786,-3.40458,0.671756,-0.683228,0.032227,0.736084,0,0,0
187,1.648855,-3.526718,0.534351,-0.68457,0.032471,0.734131,0,0,0
190,1.541985,-3.40458,0.70229,-0.681152,0.029541,0.733887,0,0,0
193,1.526718,-3.435115,0.580153,-0.679321,0.035034,0.733643,0,0,0
196,1.572519,-3.175573,0.610687,-0.67749,0.036133,0.73645,0,0,0
199,1.328244,-3.099237,0.610687,-0.681763,0.034546,0.735962,0,0,0
202,1.160305,-2.717557,0.396947,-0.678223,0.036255,0.730835,0,0,0
205,0.763359,-2.534351,0.351145,-0.676392,0.037476,0.733887,0,0,0
208,0.641221,-2.244275,0,-0.677002,0.035522,0.733521,0,0,0
211,0.427481,-2.152672,-0.030534,-0.675415,0.034668,0.734375,0,0,0
214,0.290076,-1.78626,-0.137405,-0.675781,0.032593,0.738525,0,0,0
217,0.396947,-1.618321,-0.015267,-0.67627,0.027954,0.734985,0,0,0
220,0.610687,-1.465649,0.137405,-0.672852,0.024902,0.737549,0,0,0
223,0.80916,-1.267176,0.396947,-0.675415,0.028687,0.738159,0,0,0
226,1.022901,-0.977099,0.610687,-0.674927,0.026978,0.736084,0,0,0
229,1.19084,-0.687023,0.839695,-0.676514,0.026611,0.736206,0,0,0
232,1.19084,-0.442748,1.160305,-0.677612,0.029907,0.741089,0,0,0
235,1.496183,-0.122137,1.236641,-0.677612,0.026611,0.739014,0,0,0
238,1.648855,0.076336,1.343511,-0.678711,0.027832,0.73938,0,0,0
241,1.877863,0.229008,1.648855,-0.678345,0.029785,0.741089,0,0,0
244,1.862595,0.381679,1.694656,-0.678467,0.029541,0.741699,0,0,0
247,1.938931,0.580153,1.694656,-0.67688,0.032715,0.740112,0,0,0
250,2,0.885496,1.816794,-0.675293,0.031494,0.740723,0,0,0
253,1.648855,0.946565,1.908397,-0.674438,0.035889,0.735596,0,0,0
0,1.480916,1.160305,1.908397,-0.679077,0.036133,0.737793,0,0,0
3,1.51145,1.29771,1.816794,-0.678467,0.037598,0.737427,0,0,0
6,1.526718,1.435115,1.801527,-0.674683,0.037842,0.739136,0,0,0
9,1.435115,1.618321,1.648855,-0.674316,0.037354,0.736572,0,0,0
12,1.19084,1.938931,1.664122,-0.677124,0.034546,0.734619,0,0,0
15,0.961832,2.045802,1.648855,-0.676514,0.033203,0.734863,0,0,0
18,0.900763,2.122137,1.725191,-0.677368,0.033691,0.733154,0,0,0
21,1.175573,2.183206,1.832061,-0.672485,0.031128,0.732422,0,0,0
24,1.206107,2.198473,1.832061,-0.681885,0.030396,0.730347,0,0,0
27,1.40458,2.229008,1.770992,-0.681763,0.033203,0.72998,0,0,0
30,1.374046,2.381679,1.725191,-0.680298,0.036987,0.731689,0,0,0
33,1.099237,2.320611,1.51145,-0.682251,0.042358,0.736572,0,0,0
36,0.59542,2.259542,1.343511,-0.683228,0.04187,0.7323,0,0,0
39,0.030534,2.21374,1.083969,-0.681885,0.04541,0.732788,0,0,0
42,-0.061069,2.259542,0.916031,-0.683228,0.04187,0.72937,0,0,0
45,-0.167939,2.229008,0.656489,-0.684692,0.036743,0.733643,0,0,0
48,-0.427481,2.167939,0.580153,-0.686157,0.033813,0.730591,0,0,0
51,-0.366412,2.015267,0.564885,-0.683594,0.03125,0.731201,0,0,0
54,-0.122137,2.10687,0.641221,-0.683594,0.025024,0.731934,0,0,0
57,0.045802,2,0.717557,-0.68457,0.029053,0.732666,0,0,0
60,0.458015,1.938931,0.763359,-0.685059,0.030273,0.730225,0,0,0
63,0.564885,2.061069,0.763359,-0.682617,0.032104,0.731812,0,0,0
66,0.503817,1.89313,0.824427,-0.681152,0.030884,0.728394,0,0,0
69,0.396947,1.877863,0.732824,-0.681152,0.034546,0.730835,0,0,0
72,0.381679,1.755725,0.59542,-0.685181,0.036865,0.727905,0,0,0
75,0.473282,1.847328,0.534351,-0.681396,0.034546,0.727173,0,0,0
78,0.290076,1.954198,0.335878,-0.682007,0.033325,0.729126,0,0,0
81,0.290076,1.862595,0.351145,-0.682007,0.035278,0.72522,0,0,0
84,0.244275,1.923664,0.030534,-0.683105,0.033447,0.72876,0,0,0
87,0.21374,1.862595,0.015267,-0.685791,0.030273,0.728027,0,0,0
90,0.259542,1.862595,-0.076336,-0.682373,0.034668,0.727417,0,0,0
93,0.244275,1.694656,-0.122137,-0.686523,0.034546,0.72644,0,0,0
96,0.274809,1.572519,-0.167939,-0.682007,0.033691,0.726318,0,0,0
99,0.152672,1.587786,-0.183206,-0.684814,0.032227,0.727905,0,0,0
102,0.076336,1.587786,-0.335878,-0.687012,0.037231,0.72522,0,0,0
105,0,1.450382,-0.412214,-0.684448,0.036499,0.727661,0,0,0
108,0.030534,1.358779,-0.48855,-0.687988,0.037231,0.725342,0,0,0
111,0,1.282443,-0.610687,-0.685181,0.035278,0.72998,0,0,0
114,0.061069,1.175573,-0.732824,-0.687988,0.033569,0.726196,0,0,0
117,0.076336,1.068702,-0.748092,-0.686157,0.033813,0.728882,0,0,0
120,-0.183206,0.885496,-0.854962,-0.687744,0.039062,0.72583,0,0,0
123,-0.183206,0.885496,-1.206107,-0.68689,0.043945,0.724976,0,0,0
126,-0.320611,0.717557,-1.541985,-0.6875,0.041016,0.724487,0,0,0
129,-1.007634,0.534351,-1.664122,-0.687988,0.042236,0.723389,0,0,0
132,-0.946565,0.366412,-1.938931,-0.685669,0.039917,0.723022,0,0,0
135,-1.419847,-0.015267,-2.045802,-0.688354,0.036011,0.723267,0,0,0
138,-1.541985,-0.091603,-2.320611,-0.686035,0.036621,0.725708,0,0,0
141,-1.587786,-0.351145,-2.366412,-0.688721,0.033691,0.727539,0,0,0
144,-1.664122,-0.351145,-2.564885,-0.686646,0.033203,0.727173,0,0,0
147,-1.801527,-0.503817,-2.59542,-0.685181,0.036011,0.728882,0,0,0
150,-1.847328,-0.625954,-2.717557,-0.682129,0.03186,0.726685,0,0,0
153,-1.908397,-0.610687,-2.870229,-0.684326,0.033447,0.727295,0,0,0
156,-2.076336,-0.717557,-3.099237,-0.684326,0.034058,0.730957,0,0,0
159,-2.21374,-0.748092,-3.206107,-0.686523,0.032471,0.725098,0,0,0
162,-2.442748,-0.80916,-3.206107,-0.68396,0.035278,0.72998,0,0,0
165,-2.48855,-0.824427,-3.312977,-0.686157,0.032715,0.729004,0,0,0
168,-2.534351,-0.778626,-3.389313,-0.685425,0.035034,0.733521,0,0,0
171,-2.732824,-0.671756,-3.572519,-0.682495,0.033691,0.730957,0,0,0
174,-2.748092,-0.717557,-3.603053,-0.682129,0.034058,0.72998,0,0,0
177,-2.656489,-0.641221,-3.740458,-0.687744,0.032959,0.730591,0,0,0
180,-2.977099,-0.641221,-3.816794,-0.680786,0.033081,0.733154,0,0,0
183,-2.900763,-0.717557,-3.832061,-0.683716,0.035156,0.732178,0,0,0
186,-3.206107,-0.549618,-4,-0.68457,0.037231,0.731323,0,0,0
189,-3.282443,-0.519084,-4.10687,-0.679565,0.032227,0.731079,0,0,0
192,-3.603053,-0.59542,-4.045802,-0.682861,0.031494,0.729248,0,0,0
195,-3.374046,-0.564885,-4.091603,-0.684937,0.030273,0.728394,0,0,0
198,-3.328244,-0.687023,-4.015267,-0.685303,0.027832,0.728027,0,0,0
201,-3.374046,-0.534351,-3.984733,-0.68335,0.024292,0.729858,0,0,0
204,-3.236641,-0.534351,-3.938931,-0.685181,0.026001,0.730347,0,0,0
207,-3.145038,-0.519084,-3.847328,-0.682129,0.029419,0.727783,0,0,0
210,-3.312977,-0.625954,-3.770992,-0.686768,0.025879,0.729736,0,0,0
213,-2.946565,-0.427481,-3.725191,-0.681885,0.025757,0.729492,0,0,0
216,-2.961832,-0.687023,-3.496183,-0.681396,0.028564,0.729614,0,0,0
219,-3.160305,-0.763359,-3.496183,-0.682495,0.024414,0.730347,0,0,0
222,-3.206107,-0.641221,-3.40458,-0.682129,0.02478,0.72937,0,0,0
225,-3.206107,-0.641221,-3.312977,-0.683838,0.023193,0.732056,0,0,0
228,-3.145038,-0.70229,-3.022901,-0.686157,0.024658,0.733521,0,0,0
231,-2.870229,-0.59542,-2.870229,-0.683472,0.022827,0.731323,0,0,0
234,-2.717557,-0.534351,-2.793893,-0.682251,0.024658,0.732544,0,0,0
237,-2.549618,-0.519084,-2.519084,-0.680786,0.019775,0.732178,0,0,0
240,-2.473282,-0.427481,-2.290076,-0.682129,0.020996,0.730591,0,0,0
243,-2.183206,-0.320611,-2.122137,-0.683838,0.022095,0.7323,0,0,0
246,-1.954198,-0.320611,-1.908397,-0.682251,0.022339,0.7323,0,0,0
249,-1.923664,-0.152672,-1.709924,-0.682007,0.023438,0.733643,0,0,0
252,-1.664122,-0.030534,-1.51145,-0.68396,0.022339,0.733154,0,0,0
255,-1.618321,0,-1.206107,-0.67981,0.018311,0.728149,0,0,0
2,-1.343511,0.137405,-0.900763,-0.682861,0.020142,0.730469,0,0,0
5,-1.099237,0.152672,-0.564885,-0.682495,0.016968,0.731934,0,0,0
8,-0.732824,0.229008,-0.290076,-0.680542,0.021851,0.733398,0,0,0
11,-0.427481,0.305344,-0.061069,-0.678223,0.023071,0.7323,0,0,0
14,-0.564885,0.305344,0.320611,-0.682007,0.02356,0.728516,0,0,0
17,-0.381679,0.503817,0.351145,-0.684204,0.025513,0.731201,0,0,0
20,-0.503817,0.427481,0.610687,-0.680298,0.02356,0.729614,0,0,0
23,-0.396947,0.534351,0.824427,-0.685547,0.024048,0.729614,0,0,0
26,-0.259542,0.59542,0.931298,-0.683716,0.024536,0.730225,0,0,0
29,-0.366412,0.519084,1.053435,-0.684448,0.023682,0.728882,0,0,0
32,-0.335878,0.687023,1.221374,-0.684448,0.024902,0.728149,0,0,0
35,-0.152672,0.70229,1.374046,-0.684326,0.02356,0.728516,0,0,0
38,0.030534,0.687023,1.496183,-0.685669,0.022827,0.730957,0,0,0
41,0,0.70229,1.755725,-0.686523,0.02356,0.728882,0,0,0
44,0.21374,0.610687,1.755725,-0.683472,0.026489,0.727295,0,0,0
47,0.244275,0.70229,1.938931,-0.684692,0.028076,0.730469,0,0,0
50,0.091603,0.610687,1.969466,-0.682983,0.026978,0.729004,0,0,0
53,0.229008,0.671756,2.015267,-0.684448,0.027344,0.72937,0,0,0
56,0.091603,0.717557,2.122137,-0.684814,0.023682,0.72876,0,0,0
59,0.183206,0.625954,2.259542,-0.680664,0.029175,0.726807,0,0,0
62,0.290076,0.748092,2.229008,-0.681274,0.026611,0.728027,0,0,0
65,0.167939,0.748092,2.320611,-0.681396,0.026733,0.727905,0,0,0
68,0.198473,0.763359,2.412214,-0.682129,0.02771,0.728882,0,0,0
71,0.061069,0.748092,2.519084,-0.681152,0.027222,0.728394,0,0,0
74,0.21374,0.748092,2.48855,-0.684204,0.027344,0.726929,0,0,0
77,0.198473,0.793893,2.641221,-0.683716,0.028564,0.728271,0,0,0
80,0,0.70229,2.580153,-0.684814,0.029907,0.726929,0,0,0
83,0.030534,0.671756,2.549618,-0.683594,0.033691,0.727905,0,0,0
86,-0.198473,0.580153,2.396947,-0.684448,0.029663,0.726685,0,0,0
89,-0.274809,0.625954,2.320611,-0.686279,0.029785,0.729248,0,0,0
92,-0.305344,0.625954,2.442748,-0.685791,0.025024,0.728271,0,0,0
95,-0.442748,0.519084,2.366412,-0.686523,0.0271,0.729736,0,0,0
98,-0.48855,0.290076,2.335878,-0.685547,0.029175,0.725464,0,0,0
101,-0.167939,0.396947,2.351145,-0.68396,0.024048,0.726318,0,0,0
104,0.061069,0.351145,2.534351,-0.687256,0.021606,0.727539,0,0,0
107,0.519084,0.183206,2.549618,-0.683472,0.019653,0.728271,0,0,0
110,1.038168,0.045802,2.656489,-0.684448,0.021362,0.729492,0,0,0
113,1.374046,0.030534,2.885496,-0.684692,0.021973,0.729736,0,0,0
116,1.557252,0,2.778626,-0.685791,0.026489,0.728394,0,0,0
119,1.603053,-0.015267,2.885496,-0.685181,0.02832,0.72583,0,0,0
122,1.496183,-0.137405,2.793893,-0.685181,0.032837,0.724121,0,0,0
125,1.374046,-0.305344,2.519084,-0.689209,0.034058,0.72583,0,0,0
128,1.328244,-0.290076,2.305344,-0.68457,0.033447,0.728027,0,0,0
131,1.129771,-0.427481,2.045802,-0.682373,0.032715,0.727051,0,0,0
134,0.839695,-0.412214,1.755725,-0.689087,0.03479,0.728882,0,0,0
137,0.80916,-0.503817,1.557252,-0.687622,0.033081,0.72876,0,0,0
140,0.564885,-0.671756,1.419847,-0.686035,0.027466,0.726318,0,0,0
143,0.641221,-0.59542,1.40458,-0.68335,0.028931,0.729858,0,0,0
146,0.793893,-0.534351,1.328244,-0.686646,0.026001,0.730103,0,0,0
149,0.885496,-0.534351,1.40458,-0.688965,0.023926,0.729858,0,0,0
152,1.038168,-0.519084,1.374046,-0.682617,0.0271,0.727173,0,0,0
155,1.129771,-0.580153,1.40458,-0.685181,0.028198,0.727051,0,0,0
158,1.267176,-0.503817,1.29771,-0.684448,0.031738,0.727783,0,0,0
161,1.068702,-0.70229,1.175573,-0.685059,0.037476,0.728638,0,0,0
164,0.80916,-0.625954,0.854962,-0.683716,0.038452,0.730347,0,0,0
167,0.625954,-0.656489,0.656489,-0.683228,0.037109,0.72583,0,0,0
170,0.48855,-0.610687,0.351145,-0.686401,0.035034,0.730713,0,0,0
173,0.427481,-0.671756,0.244275,-0.683472,0.030396,0.731323,0,0,0
176,0.335878,-0.687023,0.21374,-0.683472,0.031982,0.72644,0,0,0
179,0.503817,-0.687023,0.10687,-0.686401,0.028687,0.729248,0,0,0
182,0.534351,-0.641221,0.259542,-0.684448,0.026978,0.730835,0,0,0
185,0.732824,-0.564885,0.244275,-0.685913,0.028931,0.729736,0,0,0
188,0.824427,-0.519084,0.183206,-0.684326,0.028198,0.728149,0,0,0
191,0.992366,-0.48855,0.10687,-0.68457,0.031738,0.732178,0,0,0
194,0.931298,-0.580153,0.320611,-0.684448,0.03064,0.729248,0,0,0
197,0.946565,-0.412214,0.076336,-0.685791,0.032837,0.727295,0,0,0
200,0.778626,-0.458015,0.122137,-0.681152,0.034058,0.727417,0,0,0
203,0.671756,-0.335878,-0.122137,-0.680786,0.037476,0.731689,0,0,0
206,0.625954,-0.229008,-0.366412,-0.682983,0.036743,0.730103,0,0,0
209,0.412214,-0.21374,-0.396947,-0.681396,0.036255,0.733154,0,0,0
212,0.183206,-0.045802,-0.564885,-0.683472,0.036255,0.730225,0,0,0
215,0.061069,0.061069,-0.610687,-0.681152,0.033691,0.734741,0,0,0
218,0.183206,0.229008,-0.610687,-0.682007,0.035156,0.733643,0,0,0
221,-0.015267,0.290076,-0.793893,-0.68103,0.032715,0.730347,0,0,0
224,-0.122137,0.366412,-0.763359,-0.679077,0.035889,0.734009,0,0,0
227,-0.259542,0.458015,-0.854962,-0.68103,0.039917,0.731445,0,0,0
230,-0.748092,0.641221,-1.007634,-0.681641,0.040527,0.729492,0,0,0
233,-1.160305,0.656489,-1.236641,-0.679077,0.041504,0.729492,0,0,0
236,-1.51145,0.854962,-1.419847,-0.684326,0.036011,0.731689,0,0,0
239,-1.832061,0.839695,-1.480916,-0.682129,0.03418,0.726318,0,0,0
242,-1.832061,1.007634,-1.633588,-0.680176,0.029907,0.730225,0,0,0
245,-1.969466,0.946565,-1.664122,-0.681763,0.031006,0.730591,0,0,0
248,-2.045802,0.961832,-1.664122,-0.680664,0.030151,0.726807,0,0,0
251,-2.076336,1.022901,-1.557252,-0.685181,0.03186,0.730103,0,0,0
254,-1.954198,1.068702,-1.587786,-0.68457,0.031982,0.727173,0,0,0
1,-1.923664,1.236641,-1.618321,-0.684692,0.027588,0.727417,0,0,0
4,-2.10687,1.160305,-1.389313,-0.68689,0.029907,0.728516,0,0,0
7,-1.908397,1.129771,-1.419847,-0.686646,0.023071,0.730225,0,0,0
10,-1.770992,1.221374,-1.175573,-0.685791,0.025024,0.732178,0,0,0
13,-1.740458,1.145038,-1.053435,-0.687378,0.026367,0.726807,0,0,0
16,-1.557252,1.129771,-1.129771,-0.689331,0.027222,0.725952,0,0,0
19,-1.89313,0.916031,-0.80916,-0.689331,0.028809,0.731689,0,0,0
22,-1.480916,0.824427,-0.916031,-0.685059,0.024536,0.727539,0,0,0
25,-1.419847,0.671756,-0.59542,-0.687622,0.023926,0.725098,0,0,0
28,-1.114504,0.519084,-0.442748,-0.689087,0.020508,0.728271,0,0,0
31,-0.671756,0.396947,-0.335878,-0.68811,0.021484,0.728271,0,0,0
34,-0.396947,0.351145,0.061069,-0.6875,0.017456,0.725586,0,0,0
37,-0.045802,0.366412,0.183206,-0.687988,0.020142,0.726196,0,0,0
40,0.183206,0.259542,0.458015,-0.685669,0.02124,0.726318,0,0,0
43,0.137405,0.259542,0.48855,-0.685913,0.022583,0.728394,0,0,0
46,0.412214,0.290076,0.534351,-0.685547,0.023682,0.728271,0,0,0
49,0.442748,0.290076,0.70229,-0.687134,0.024902,0.732422,0,0,0
52,0.366412,0.259542,0.748092,-0.685791,0.022705,0.731689,0,0,0
55,0.473282,0.137405,0.885496,-0.686401,0.024414,0.728149,0,0,0
58,0.549618,0.21374,0.885496,-0.684814,0.028442,0.729126,0,0,0
61,0.503817,0.274809,1.206107,-0.686646,0.026978,0.728638,0,0,0
64,0.549618,0.061069,1.312977,-0.686646,0.024414,0.726929,0,0,0
67,0.549618,0.152672,1.40458,-0.686523,0.021606,0.72583,0,0,0
70,0.641221,0.229008,1.679389,-0.685059,0.021606,0.729736,0,0,0
73,0.946565,0.381679,1.984733,-0.683472,0.019043,0.72583,0,0,0
76,1.206107,0.290076,2.335878,-0.687012,0.016968,0.728516,0,0,0
79,1.633588,0.274809,2.80916,-0.687134,0.016968,0.727905,0,0,0
82,1.908397,0.229008,3.206107,-0.687134,0.015747,0.727051,0,0,0
85,2.274809,0.229008,3.648855,-0.687622,0.015869,0.728638,0,0,0
88,2.549618,0.198473,4.030534,-0.686768,0.018433,0.732544,0,0,0
91,3.053435,0.290076,4.305344,-0.6875,0.015747,0.730347,0,0,0
94,3.282443,0.21374,4.824427,-0.687622,0.016235,0.726562,0,0,0
97,3.618321,0.152672,5.29771,-0.6875,0.020386,0.728027,0,0,0
100,3.954198,0.183206,5.526718,-0.687866,0.022339,0.729858,0,0,0
103,4.137405,0.167939,5.770992,-0.685669,0.025024,0.727539,0,0,0
106,4.10687,0.229008,6.091603,-0.6875,0.02417,0.729614,0,0,0
109,4.244275,0.152672,6.396947,-0.684082,0.022949,0.72876,0,0,0
112,4.503817,0.183206,6.610687,-0.684692,0.0271,0.730347,0,0,0
115,4.366412,0.229008,6.839695,-0.685181,0.025635,0.728149,0,0,0
118,4.59542,0.10687,7.083969,-0.684204,0.025024,0.730469,0,0,0
121,4.656489,0.259542,7.19084,-0.68457,0.026245,0.724976,0,0,0
124,4.671756,0.198473,7.435115,-0.685303,0.030151,0.726562,0,0,0
127,4.625954,0.229008,7.450382,-0.687988,0.03125,0.725464,0,0,0
130,4.458015,0.152672,7.557252,-0.682617,0.030518,0.725464,0,0,0
133,4.564885,0.167939,7.694656,-0.686768,0.03064,0.730225,0,0,0
136,4.503817,0.137405,7.908397,-0.688599,0.030518,0.727417,0,0,0
139,4.442748,0.183206,7.984733,-0.688965,0.027832,0.729858,0,0,0
142,4.458015,0.10687,8.274809,-0.685547,0.029419,0.729004,0,0,0
145,4.503817,0.076336,8.305344,-0.685791,0.028564,0.72522,0,0,0
148,4.59542,0.122137,8.442748,-0.684448,0.033081,0.725708,0,0,0
151,4.473282,0.10687,8.671756,-0.682495,0.033691,0.728149,0,0,0
154,4.381679,0.198473,8.625954,-0.685669,0.036987,0.72876,0,0,0
157,4.366412,0.091603,8.641221,-0.686523,0.033081,0.724487,0,0,0
160,4.335878,-0.091603,8.961832,-0.68811,0.027954,0.724731,0,0,0
163,4.778626,-0.122137,9.221374,-0.689331,0.02417,0.729614,0,0,0
166,5.038168,-0.183206,9.450382,-0.688599,0.02478,0.725098,0,0,0
169,5.374046,-0.229008,9.740458,-0.689087,0.030518,0.720703,0,0,0
172,5.801527,-0.290076,9.984733,-0.689087,0.026978,0.724976,0,0,0
175,5.847328,-0.458015,10.229008,-0.686401,0.030396,0.725952,0,0,0
178,5.832061,-0.396947,10.351145,-0.687622,0.031128,0.723022,0,0,0
181,5.984733,-0.473282,10.549618,-0.689941,0.030151,0.72644,0,0,0
184,5.984733,-0.564885,10.793893,-0.691162,0.026001,0.727661,0,0,0
187,6.564885,-0.549618,10.977099,-0.684692,0.023682,0.727417,0,0,0
190,6.885496,-0.625954,11.419847,-0.687256,0.024902,0.728027,0,0,0
193,7.267176,-0.610687,11.801527,-0.687134,0.026245,0.729858,0,0,0
196,7.801527,-0.427481,12.122137,-0.683228,0.026245,0.729248,0,0,0
199,8.183206,-0.610687,12.534351,-0.685303,0.026001,0.728149,0,0,0
202,8.442748,-0.427481,12.854962,-0.688232,0.029907,0.72644,0,0,0
205,8.748092,-0.503817,13.099237,-0.686646,0.033203,0.730347,0,0,0
208,8.778626,-0.442748,13.328244,-0.684082,0.030396,0.730469,0,0,0
211,9.175573,-0.48855,13.603053,-0.684082,0.032959,0.727051,0,0,0
214,9.541985,-0.442748,13.770992,-0.684814,0.034668,0.727173,0,0,0
217,9.343511,-0.412214,13.984733,-0.684937,0.038818,0.726807,0,0,0
220,9.526718,-0.442748,14,-0.687012,0.033936,0.727051,0,0,0
223,9.664122,-0.503817,14.183206,-0.686035,0.035034,0.726318,0,0,0
226,9.877863,-0.549618,14.473282,-0.685181,0.030762,0.72522,0,0,0
229,10.519084,-0.625954,14.656489,-0.686523,0.031738,0.72644,0,0,0
232,10.70229,-0.48855,15.007634,-0.68457,0.035889,0.727173,0,0,0
235,10.977099,-0.534351,15.129771,-0.684692,0.036377,0.725098,0,0,0
238,11.328244,-0.427481,15.221374,-0.685669,0.039795,0.728516,0,0,0
241,11.206107,-0.320611,15.358779,-0.685791,0.043091,0.728394,0,0,0
244,11.419847,-0.122137,15.435115,-0.683228,0.040649,0.725342,0,0,0
247,11.251908,-0.167939,15.633588,-0.684326,0.04187,0.725464,0,0,0
250,11.419847,0.061069,15.572519,-0.682373,0.043091,0.726196,0,0,0
253,11.587786,0.015267,15.709924,-0.68689,0.046021,0.727783,0,0,0
0,11.496183,0.091603,15.755725,-0.684692,0.044434,0.727783,0,0,0
3,11.450382,0.198473,15.648855,-0.683472,0.049072,0.729614,0,0,0
6,11.282443,0.320611,15.648855,-0.681396,0.047607,0.730225,0,0,0
9,11.480916,0.351145,15.603053,-0.681519,0.049805,0.726807,0,0,0
12,11.19084,0.396947,15.801527,-0.684204,0.049805,0.729614,0,0,0
15,11.465649,0.427481,15.694656,-0.684814,0.048584,0.727295,0,0,0
18,11.068702,0.320611,15.78626,-0.684814,0.052856,0.728516,0,0,0
21,11.099237,0.396947,15.740458,-0.685303,0.052368,0.72998,0,0,0
24,10.977099,0.305344,15.709924,-0.686157,0.057739,0.726562,0,0,0
27,11.114504,0.427481,15.603053,-0.686768,0.053223,0.727539,0,0,0
30,10.671756,0.412214,15.572519,-0.683716,0.056396,0.723877,0,0,0
33,10.70229,0.458015,15.572519,-0.685913,0.053467,0.726685,0,0,0
36,10.717557,0.320611,15.648855,-0.685669,0.05603,0.728027,0,0,0
39,10.519084,0.198473,15.694656,-0.687256,0.050903,0.723145,0,0,0
42,10.641221,0.061069,15.923664,-0.682739,0.046021,0.72229,0,0,0
45,11.145038,0.015267,15.969466,-0.687988,0.046875,0.7229,0,0,0
48,11.587786,-0.061069,16.10687,-0.687866,0.045166,0.72229,0,0,0
51,12.045802,-0.183206,16.396947,-0.687744,0.045898,0.72876,0,0,0
54,12.427481,-0.198473,16.564885,-0.686401,0.048706,0.724976,0,0,0
57,12.80916,-0.167939,16.59542,-0.686523,0.05127,0.727661,0,0,0
60,12.916031,-0.198473,16.717557,-0.688354,0.054565,0.72644,0,0,0
63,13.160305,-0.290076,16.839695,-0.686523,0.056885,0.723633,0,0,0
66,13.099237,-0.198473,16.793893,-0.685547,0.060303,0.729004,0,0,0
69,13.099237,-0.503817,16.854962,-0.685181,0.059204,0.729126,0,0,0
72,13.358779,-0.335878,16.885496,-0.686646,0.059204,0.727051,0,0,0
75,13.343511,-0.503817,16.931298,-0.687256,0.059937,0.726318,0,0,0
78,13.496183,-0.534351,16.946565,-0.685669,0.056152,0.725098,0,0,0
81,13.541985,-0.59542,17.099237,-0.685181,0.059326,0.724854,0,0,0
84,13.801527,-0.610687,17.022901,-0.683594,0.057861,0.726685,0,0,0
87,13.78626,-0.59542,17.083969,-0.683228,0.056152,0.724609,0,0,0
90,14.030534,-0.580153,17.282443,-0.683716,0.058716,0.726318,0,0,0
93,14.122137,-0.534351,17.282443,-0.68335,0.05896,0.726929,0,0,0
96,14.183206,-0.503817,17.343511,-0.684448,0.067261,0.724976,0,0,0
99,14.229008,-0.48855,17.175573,-0.684814,0.068359,0.728271,0,0,0
102,13.89313,-0.641221,17.206107,-0.686646,0.067505,0.723511,0,0,0
105,13.648855,-0.503817,16.961832,-0.686035,0.07019,0.725342,0,0,0
108,13.374046,-0.610687,16.763359,-0.687012,0.069702,0.726074,0,0,0
111,13.251908,-0.641221,16.839695,-0.686401,0.069092,0.723633,0,0,0
114,13.282443,-0.70229,16.778626,-0.686279,0.068115,0.719604,0,0,0
117,13.175573,-0.80916,16.625954,-0.685059,0.070801,0.72644,0,0,0
120,13.099237,-0.80916,16.641221,-0.687012,0.068237,0.724243,0,0,0
123,13.038168,-0.80916,16.534351,-0.687378,0.072021,0.721558,0,0,0
126,13.022901,-0.854962,16.396947,-0.683472,0.072144,0.723022,0,0,0
129,12.946565,-0.900763,16.412214,-0.685303,0.071777,0.72583,0,0,0
132,12.839695,-0.931298,16.458015,-0.685547,0.068604,0.72522,0,0,0
135,12.839695,-1.038168,16.442748,-0.690552,0.071899,0.726685,0,0,0
138,12.946565,-1.022901,16.427481,-0.68335,0.06604,0.724731,0,0,0
141,13.19084,-1.068702,16.564885,-0.687866,0.068115,0.721191,0,0,0
144,13.282443,-1.160305,16.916031,-0.689575,0.065186,0.727905,0,0,0
147,13.725191,-1.236641,16.885496,-0.684692,0.066772,0.728149,0,0,0
150,13.832061,-1.175573,17.129771,-0.684814,0.064697,0.727173,0,0,0
153,14.229008,-1.175573,17.343511,-0.683716,0.068481,0.726807,0,0,0
156,14.458015,-1.251908,17.480916,-0.682739,0.068848,0.725708,0,0,0
159,14.473282,-1.099237,17.78626,-0.683594,0.071899,0.72522,0,0,0
162,14.763359,-1.129771,17.648855,-0.68396,0.07373,0.726929,0,0,0
165,14.763359,-1.251908,17.725191,-0.680786,0.075562,0.727661,0,0,0
168,14.641221,-1.251908,17.801527,-0.68457,0.080322,0.723267,0,0,0
171,14.778626,-1.206107,17.557252,-0.683716,0.081665,0.724609,0,0,0
174,14.290076,-1.236641,17.496183,-0.683716,0.08606,0.724243,0,0,0
177,14.137405,-1.328244,17.267176,-0.683228,0.084351,0.724121,0,0,0
180,13.923664,-1.282443,17.129771,-0.686401,0.088013,0.721924,0,0,0
183,13.526718,-1.374046,16.931298,-0.687622,0.087402,0.724365,0,0,0
186,13.236641,-1.435115,16.748092,-0.684814,0.086304,0.721313,0,0,0
189,13.099237,-1.51145,16.610687,-0.686035,0.080933,0.726318,0,0,0
192,12.961832,-1.526718,16.549618,-0.690186,0.087036,0.7229,0,0,0
195,12.748092,-1.496183,16.641221,-0.685913,0.082764,0.724609,0,0,0
198,12.732824,-1.389313,16.70229,-0.684814,0.082886,0.724487,0,0,0
201,12.854962,-1.206107,16.778626,-0.678711,0.083008,0.727905,0,0,0
204,12.763359,-1.206107,16.763359,-0.682861,0.080078,0.721924,0,0,0
207,12.961832,-1.083969,16.900763,-0.682373,0.083374,0.727783,0,0,0
210,12.992366,-1.038168,17.099237,-0.682739,0.085205,0.724976,0,0,0
213,12.870229,-1.007634,17.328244,-0.684204,0.084473,0.724243,0,0,0
216,13.175573,-0.992366,17.343511,-0.682251,0.085449,0.724854,0,0,0
219,13.099237,-1.114504,17.740458,-0.682251,0.085693,0.725708,0,0,0
222,13.236641,-1.19084,17.862595,-0.683105,0.087646,0.727295,0,0,0
225,13.175573,-1.175573,18.045802,-0.68335,0.085938,0.727661,0,0,0
228,13.282443,-1.099237,18.152672,-0.681885,0.087646,0.724365,0,0,0
231,13.160305,-1.19084,18.381679,-0.682739,0.083374,0.726929,0,0,0
234,13.618321,-1.068702,18.564885,-0.683838,0.082397,0.728516,0,0,0
237,13.969466,-1.099237,19.19084,-0.683105,0.076294,0.725708,0,0,0
240,14.580153,-1.068702,19.541985,-0.684692,0.074463,0.724731,0,0,0
243,15.160305,-1.099237,20.015267,-0.683105,0.075439,0.726929,0,0,0
246,15.709924,-1.053435,20.580153,-0.6875,0.076416,0.727051,0,0,0
249,16.580153,-0.992366,21.068702,-0.682861,0.076904,0.726562,0,0,0
252,16.931298,-0.824427,21.480916,-0.684326,0.077759,0.726685,0,0,0
255,17.343511,-0.80916,21.847328,-0.684448,0.084106,0.725342,0,0,0
2,17.89313,-0.748092,22,-0.68042,0.086914,0.726807,0,0,0
5,18.015267,-0.80916,22.442748,-0.680298,0.090576,0.728394,0,0,0
8,18.320611,-0.519084,22.519084,-0.681641,0.088501,0.72644,0,0,0
11,18.519084,-0.442748,22.778626,-0.676147,0.091553,0.728027,0,0,0
14,18.656489,-0.183206,23.145038,-0.677979,0.090088,0.733521,0,0,0
17,18.671756,0,23.312977,-0.680542,0.091309,0.728882,0,0,0
20,19.206107,0.137405,23.648855,-0.680298,0.089966,0.729126,0,0,0
23,19.435115,0.305344,23.862595,-0.678101,0.092407,0.725098,0,0,0
26,19.862595,0.427481,24.015267,-0.67749,0.092041,0.729126,0,0,0
29,20.152672,0.610687,24.320611,-0.680176,0.094482,0.727783,0,0,0
32,20.458015,0.687023,24.351145,-0.682495,0.093994,0.724976,0,0,0
35,20.732824,0.900763,24.473282,-0.680908,0.098145,0.726074,0,0,0
38,21.129771,0.946565,24.473282,-0.682251,0.099976,0.726562,0,0,0
41,21.236641,1.022901,24.534351,-0.683228,0.101074,0.727661,0,0,0
44,21.526718,1.175573,24.442748,-0.681274,0.103516,0.728638,0,0,0
47,21.862595,1.282443,24.610687,-0.678711,0.102295,0.727661,0,0,0
50,22.091603,1.374046,24.717557,-0.681274,0.103638,0.724731,0,0,0
53,22.320611,1.51145,24.610687,-0.680542,0.105103,0.730103,0,0,0
56,22.458015,1.480916,24.824427,-0.679688,0.103271,0.727661,0,0,0
59,23.206107,1.633588,24.732824,-0.678223,0.107544,0.724609,0,0,0
62,23.267176,1.572519,24.839695,-0.678101,0.106445,0.728149,0,0,0
65,23.496183,1.755725,24.900763,-0.677979,0.112793,0.725586,0,0,0
68,23.526718,1.78626,24.641221,-0.679932,0.118164,0.728638,0,0,0
71,23.450382,1.89313,24.473282,-0.680542,0.119019,0.724854,0,0,0
74,23.328244,1.832061,24.122137,-0.68042,0.120117,0.722778,0,0,0
77,23.022901,1.832061,23.862595,-0.682861,0.120728,0.723755,0,0,0
80,22.839695,1.770992,23.450382,-0.680786,0.123779,0.719849,0,0,0
83,22.580153,1.694656,23.099237,-0.684326,0.122192,0.717041,0,0,0
86,22.610687,1.725191,22.610687,-0.682983,0.125,0.720093,0,0,0
89,22.320611,1.557252,22.366412,-0.684814,0.124023,0.718872,0,0,0
92,22.091603,1.603053,21.984733,-0.68103,0.126343,0.720459,0,0,0
95,22.015267,1.572519,21.648855,-0.685181,0.124268,0.716309,0,0,0
98,21.877863,1.541985,21.343511,-0.681885,0.122925,0.719116,0,0,0
101,21.908397,1.435115,20.900763,-0.682739,0.120117,0.717896,0,0,0
104,22.015267,1.328244,20.854962,-0.681519,0.120483,0.719482,0,0,0
107,22.183206,1.40458,20.717557,-0.68042,0.123657,0.717651,0,0,0
110,22.442748,1.282443,20.442748,-0.679932,0.124268,0.720215,0,0,0
113,22.656489,1.267176,20.122137,-0.68042,0.122437,0.722778,0,0,0
116,22.687023,1.129771,20.030534,-0.679688,0.129395,0.719116,0,0,0
119,23.053435,1.083969,19.603053,-0.680054,0.126831,0.715942,0,0,0
122,23.19084,0.870229,19.374046,-0.683472,0.130981,0.71936,0,0,0
125,23.328244,1.022901,18.824427,-0.678467,0.125122,0.718018,0,0,0
128,23.450382,0.992366,18.320611,-0.680054,0.132568,0.720337,0,0,0
131,23.236641,0.839695,17.954198,-0.678833,0.13501,0.719238,0,0,0
134,23.29771,0.763359,17.572519,-0.679199,0.136841,0.718506,0,0,0
137,22.961832,0.687023,16.961832,-0.676636,0.138306,0.718262,0,0,0
140,22.381679,0.870229,16.427481,-0.677368,0.141479,0.715942,0,0,0
143,21.954198,0.793893,15.954198,-0.677734,0.141968,0.71936,0,0,0
146,21.496183,0.793893,15.496183,-0.680664,0.141968,0.718994,0,0,0
149,20.946565,0.900763,15.068702,-0.67627,0.139893,0.718872,0,0,0
152,20.48855,0.961832,14.748092,-0.674561,0.139893,0.719116,0,0,0
155,20.21374,0.961832,14.519084,-0.673218,0.134155,0.71936,0,0,0
158,20.320611,1.160305,14.076336,-0.678955,0.126343,0.725342,0,0,0
161,20.656489,1.114504,13.954198,-0.676025,0.123901,0.723145,0,0,0
164,20.717557,1.267176,14,-0.673462,0.132935,0.723999,0,0,0
167,20.900763,1.29771,13.526718,-0.673706,0.139893,0.720215,0,0,0
170,20.580153,1.374046,13.374046,-0.67395,0.142212,0.716919,0,0,0
173,20.061069,1.450382,12.961832,-0.673828,0.153809,0.720215,0,0,0
176,18.885496,1.419847,12.320611,-0.676025,0.156982,0.716675,0,0,0
179,17.694656,1.419847,11.954198,-0.675537,0.167236,0.713257,0,0,0
182,16.564885,1.435115,11.068702,-0.678101,0.163452,0.714966,0,0,0
185,15.267176,1.557252,10.381679,-0.680542,0.1604,0.719116,0,0,0
188,14.259542,1.465649,9.709924,-0.678711,0.148804,0.717163,0,0,0
191,13.816794,1.51145,9.160305,-0.682983,0.143677,0.718018,0,0,0
194,13.251908,1.496183,9.587786,-0.680664,0.141846,0.716309,0,0,0
197,12.885496,1.465649,9.435115,-0.679565,0.137817,0.723755,0,0,0
200,12.687023,1.465649,9.206107,-0.680298,0.139648,0.713623,0,0,0
203,12.564885,1.374046,9.145038,-0.679932,0.129517,0.723022,0,0,0
206,12.717557,1.618321,8.992366,-0.684326,0.130859,0.720093,0,0,0
209,12.625954,1.618321,9.328244,-0.678589,0.12915,0.720093,0,0,0
212,12.778626,1.541985,9.419847,-0.682129,0.134521,0.722656,0,0,0
215,12.824427,1.40458,9.419847,-0.684082,0.125977,0.714478,0,0,0
218,13.40458,1.435115,9.603053,-0.682007,0.12854,0.712524,0,0,0
221,13.496183,1.251908,9.526718,-0.687012,0.131836,0.716187,0,0,0
224,13.099237,1.251908,9.694656,-0.6875,0.141602,0.715698,0,0,0
227,12.793893,1.175573,9.679389,-0.685669,0.137207,0.717041,0,0,0
230,12.503817,1.206107,9.099237,-0.688843,0.136353,0.709106,0,0,0
233,11.862595,1.206107,9.29771,-0.691162,0.142944,0.716797,0,0,0
236,11.603053,1.129771,9.114504,-0.683105,0.139771,0.711792,0,0,0
239,11.633588,1.053435,9.221374,-0.691406,0.144165,0.716187,0,0,0
242,11.19084,0.900763,9.099237,-0.68457,0.130371,0.713135,0,0,0
245,11.053435,1.038168,8.244275,-0.69043,0.129761,0.717285,0,0,0
248,10.59542,0.916031,8.717557,-0.69165,0.134888,0.716064,0,0,0
251,10.778626,0.992366,8.854962,-0.683594,0.132935,0.711914,0,0,0
254,10.732824,0.916031,8.70229,-0.687622,0.130005,0.710938,0,0,0
1,10.48855,1.038168,8.625954,-0.687256,0.136597,0.718384,0,0,0
4,10.396947,1.160305,8.80916,-0.687256,0.143677,0.715576,0,0,0
7,9.89313,0.961832,9.099237,-0.684082,0.143555,0.712158,0,0,0
10,9.221374,1.129771,7.969466,-0.689331,0.136841,0.713501,0,0,0
13,8.366412,1.053435,8.091603,-0.681152,0.142822,0.713989,0,0,0
16,8.167939,1.129771,7.877863,-0.687012,0.131714,0.715942,0,0,0
19,8.10687,1.267176,8.061069,-0.689819,0.138184,0.713745,0,0,0
22,8.167939,1.083969,7.862595,-0.684937,0.130005,0.71167,0,0,0
25,7.847328,1.312977,7.450382,-0.688965,0.136963,0.713745,0,0,0
28,7.358779,1.374046,8.320611,-0.689209,0.138428,0.72229,0,0,0
31,7.328244,1.312977,7.267176,-0.689819,0.119873,0.714844,0,0,0
34,7.465649,1.496183,7.908397,-0.687134,0.13269,0.716797,0,0,0
37,7.648855,1.435115,8.274809,-0.686646,0.124146,0.7146,0,0,0
40,7.709924,1.389313,8.167939,-0.687012,0.131592,0.716431,0,0,0
43,7.664122,1.480916,8.305344,-0.683472,0.125488,0.716187,0,0,0
46,7.328244,1.557252,8.320611,-0.686523,0.132568,0.720703,0,0,0
49,8.045802,1.374046,8.48855,-0.685547,0.122559,0.718262,0,0,0
52,8.198473,1.526718,8.396947,-0.689331,0.130371,0.718506,0,0,0
55,9.129771,1.572519,8.70229,-0.691528,0.130127,0.717285,0,0,0
58,8.396947,1.633588,8.687023,-0.682251,0.121216,0.717407,0,0,0
61,7.923664,2.030534,7.541985,-0.6875,0.119629,0.723145,0,0,0
64,7.801527,2.137405,8.564885,-0.684937,0.12793,0.720215,0,0,0
67,8.70229,2.59542,9.160305,-0.680786,0.13208,0.715698,0,0,0
70,9.343511,2.580153,9.19084,-0.677246,0.129272,0.706421,0,0,0
73,9.587786,3.083969,9.603053,-0.677002,0.138184,0.722046,0,0,0
76,9.114504,2.763359,8.732824,-0.689941,0.135254,0.706421,0,0,0
79,8.687023,2.091603,9.496183,-0.683594,0.131836,0.716919,0,0,0
82,8.137405,2.961832,8.977099,-0.674438,0.134277,0.72583,0,0,0
85,7.877863,3.603053,8.793893,-0.681641,0.136719,0.720337,0,0,0
88,7.541985,2.748092,8.824427,-0.685181,0.118042,0.713257,0,0,0
91,8.045802,2.748092,8.870229,-0.683105,0.11731,0.721802,0,0,0
94,9.221374,2.656489,8.916031,-0.681274,0.108643,0.715088,0,0,0
97,9.587786,2.732824,8.091603,-0.688965,0.109375,0.719971,0,0,0
100,10.778626,2.900763,9.206107,-0.686035,0.130493,0.720947,0,0,0
103,11.496183,2.763359,10.076336,-0.680176,0.13623,0.717529,0,0,0
106,11.541985,2.870229,9.603053,-0.68811,0.13855,0.716431,0,0,0
109,10.442748,2.778626,8.458015,-0.68811,0.129028,0.712524,0,0,0
112,9.587786,3.282443,8.748092,-0.682617,0.151489,0.71106,0,0,0
115,10.442748,3.038168,8.458015,-0.684937,0.130493,0.713013,0,0,0
118,10.793893,3.114504,8.549618,-0.677734,0.12854,0.721436,0,0,0
121,10.396947,3.282443,7.465649,-0.691772,0.143433,0.711914,0,0,0
124,9.053435,3.053435,7.557252,-0.680176,0.1427,0.703857,0,0,0
127,8.748092,3.267176,6.183206,-0.696533,0.13855,0.717407,0,0,0
130,8.152672,3.053435,6.564885,-0.685059,0.145874,0.710815,0,0,0
133,7.374046,2.931298,4.931298,-0.688721,0.135864,0.703491,0,0,0
136,7.419847,3.282443,5.29771,-0.689209,0.157715,0.707275,0,0,0
139,6.625954,3.114504,5.175573,-0.682983,0.145996,0.694702,0,0,0
142,5.145038,3.679389,4.503817,-0.6875,0.158447,0.707764,0,0,0
145,4.351145,3.465649,4.305344,-0.681274,0.140137,0.707642,0,0,0
148,4.030534,3.908397,3.267176,-0.683228,0.150513,0.710693,0,0,0
151,2.931298,4.198473,2.580153,-0.680298,0.143066,0.709595,0,0,0
154,2.198473,4.717557,0.687023,-0.686646,0.136841,0.710938,0,0,0
157,2.641221,4.763359,2.396947,-0.675781,0.16748,0.711426,0,0,0
160,1.816794,5.633588,0.946565,-0.684814,0.157227,0.711914,0,0,0
163,0.961832,5.847328,0.48855,-0.686401,0.163208,0.712402,0,0,0
166,0.229008,5.938931,0.977099,-0.680908,0.174927,0.707886,0,0,0
169,-0.259542,6,-0.183206,-0.682861,0.147583,0.71167,0,0,0
172,-0.091603,6.122137,0.473282,-0.687744,0.167969,0.719116,0,0,0
175,-0.885496,5.969466,0.290076,-0.682983,0.165405,0.703003,0,0,0
178,-0.656489,5.770992,-0.030534,-0.684692,0.154785,0.713135,0,0,0
181,-2.198473,5.725191,-0.259542,-0.692993,0.154053,0.715454,0,0,0
184,-1.908397,5.175573,0.412214,-0.687256,0.146729,0.718262,0,0,0
187,-0.916031,4.656489,0,-0.693604,0.133179,0.709229,0,0,0
190,-1.160305,4.519084,-0.59542,-0.68457,0.109009,0.712402,0,0,0
193,-1.358779,5.053435,-1.267176,-0.70166,0.125732,0.72644,0,0,0
196,-0.885496,4.946565,-0.839695,-0.682617,0.108521,0.720947,0,0,0
199,-0.473282,5.175573,-0.473282,-0.690308,0.127197,0.720093,0,0,0
202,2.167939,4.870229,1.40458,-0.675537,0.12085,0.728394,0,0,0
205,2.870229,5.709924,0.503817,-0.686035,0.143921,0.727783,0,0,0
208,4.503817,5.175573,1.282443,-0.684448,0.139282,0.71936,0,0,0
211,4.045802,5.816794,-0.015267,-0.681152,0.152588,0.706177,0,0,0
214,2.320611,6.244275,0.152672,-0.689575,0.158813,0.725342,0,0,0
217,3.206107,6.320611,1.29771,-0.681396,0.173828,0.713379,0,0,0
220,1.664122,6.335878,-0.259542,-0.672485,0.144165,0.702759,0,0,0
223,1.694656,6.748092,-0.931298,-0.692627,0.157471,0.728149,0,0,0
226,1.526718,6.21374,-1.496183,-0.677368,0.113403,0.713623,0,0,0
229,1.557252,6.992366,-2.122137,-0.694092,0.147949,0.705811,0,0,0
232,1.633588,6.564885,-0.931298,-0.68689,0.130737,0.710083,0,0,0
235,2.870229,6.717557,-0.381679,-0.680908,0.145142,0.712036,0,0,0
238,3.099237,6.839695,-0.656489,-0.686157,0.139404,0.714355,0,0,0
241,3.206107,6.48855,-1.068702,-0.682739,0.125732,0.700684,0,0,0
244,2.793893,6.59542,-1.908397,-0.696167,0.123047,0.722412,0,0,0
247,4.229008,6.351145,-1.175573,-0.690796,0.127441,0.710083,0,0,0
250,5.862595,6.21374,0.381679,-0.688599,0.13562,0.705811,0,0,0
253,8.427481,5.984733,1.267176,-0.687256,0.140991,0.700806,0,0,0
0,9.816794,5.78626,1.343511,-0.688232,0.150391,0.706421,0,0,0
3,8.977099,5.709924,1.221374,-0.684937,0.162231,0.704346,0,0,0
6,7.175573,6.167939,0.10687,-0.693848,0.170166,0.71521,0,0,0
9,4.137405,5.908397,-1.679389,-0.692383,0.125366,0.699219,0,0,0
12,3.740458,6.045802,-1.740458,-0.691162,0.120239,0.718872,0,0,0
15,6.152672,6.091603,-0.778626,-0.690796,0.127319,0.717651,0,0,0
18,9.969466,5.664122,1.068702,-0.689575,0.143677,0.704712,0,0,0
21,11.358779,5.908397,0.641221,-0.686646,0.138184,0.694946,0,0,0
24,13.007634,5.618321,1.083969,-0.693115,0.165405,0.709839,0,0,0
27,11.801527,5.251908,-0.183206,-0.679565,0.131104,0.697632,0,0,0
30,8.778626,6.274809,-1.664122,-0.704712,0.164673,0.723389,0,0,0
33,7.328244,5.572519,-1.465649,-0.68811,0.11377,0.711426,0,0,0
36,8.793893,6.21374,-1.816794,-0.683228,0.141113,0.707275,0,0,0
39,8.977099,5.89313,-1.251908,-0.689331,0.130737,0.7052,0,0,0
42,8.549618,6.137405,-1.89313,-0.688599,0.1427,0.707397,0,0,0
45,7.984733,5.633588,-3.923664,-0.699707,0.107422,0.70813,0,0,0
48,10.076336,5.465649,-2.671756,-0.687134,0.132446,0.718628,0,0,0
51,9.312977,5.694656,-4.473282,-0.693481,0.123535,0.704712,0,0,0
54,10.351145,5.816794,-3.740458,-0.701416,0.165039,0.721436,0,0,0
57,11.374046,4.900763,-4.122137,-0.681152,0.11792,0.70166,0,0,0
60,10.259542,5.755725,-7.587786,-0.713623,0.141235,0.720581,0,0,0
63,10.48855,4.442748,-3.938931,-0.692749,0.163086,0.702148,0,0,0
66,9.877863,4.70229,-4.564885,-0.679199,0.147583,0.692383,0,0,0
69,8.656489,4.335878,-5.312977,-0.697388,0.143555,0.711304,0,0,0
72,9.648855,3.78626,-5.099237,-0.675781,0.133789,0.703125,0,0,0
75,9.175573,4.381679,-6.458015,-0.706421,0.164917,0.726074,0,0,0
78,9.526718,3.038168,-4.381679,-0.683228,0.156616,0.689819,0,0,0
81,8.458015,3.801527,-7.129771,-0.692505,0.160156,0.716187,0,0,0
84,8.244275,2.900763,-8.061069,-0.692627,0.138916,0.698608,0,0,0
87,7.358779,3.343511,-8.458015,-0.692993,0.157837,0.702271,0,0,0
90,7.603053,2.977099,-8.625954,-0.70874,0.161255,0.707153,0,0,0
93,10.152672,2.045802,-6.549618,-0.677979,0.12146,0.700317,0,0,0
96,12.091603,3.419847,-6.427481,-0.701538,0.192261,0.706055,0,0,0
99,14.412214,2.015267,-2.21374,-0.666626,0.203735,0.681641,0,0,0
102,12.656489,2.641221,-5.29771,-0.691406,0.214233,0.691284,0,0,0
105,10.59542,2.549618,-5.358779,-0.692505,0.212402,0.687012,0,0,0
108,9.908397,2.335878,-4.259542,-0.686768,0.221436,0.699219,0,0,0
111,8.70229,1.877863,-4.931298,-0.685669,0.194824,0.692505,0,0,0
114,7.526718,2.21374,-5.374046,-0.696289,0.196899,0.70752,0,0,0
117,3.29771,2.396947,-7.877863,-0.697388,0.150146,0.69043,0,0,0
120,4.305344,2.10687,-5.541985,-0.691772,0.157837,0.714966,0,0,0
123,5.938931,1.572519,-4,-0.680664,0.141113,0.706543,0,0,0
126,9.572519,1.770992,-3.51145,-0.697388,0.181763,0.690552,0,0,0
129,9.29771,1.603053,-2.900763,-0.695312,0.172363,0.700317,0,0,0
132,9.526718,1.465649,-3.603053,-0.692505,0.175293,0.700684,0,0,0
135,8.519084,1.374046,-4.305344,-0.69104,0.161499,0.699097,0,0,0
138,6.335878,1.419847,-3.557252,-0.687012,0.160645,0.702393,0,0,0
141,6.870229,1.389313,-4.137405,-0.700317,0.146851,0.692017,0,0,0
144,5.984733,1.022901,-5.78626,-0.702637,0.128174,0.69043,0,0,0
147,6.061069,0.931298,-5.038168,-0.687744,0.129028,0.697754,0,0,0
150,5.358779,2.015267,-4.824427,-0.70459,0.183228,0.706909,0,0,0
153,9.206107,1.740458,-0.946565,-0.686768,0.200562,0.706299,0,0,0
156,10.229008,1.312977,-0.396947,-0.677002,0.177002,0.697754,0,0,0
159,8.48855,1.923664,-5.312977,-0.70459,0.188965,0.700073,0,0,0
162,6.458015,0.961832,-5.038168,-0.683228,0.163452,0.696289,0,0,0
165,0.870229,2.21374,-8.717557,-0.717285,0.174927,0.702881,0,0,0
168,0.274809,1.419847,-6.396947,-0.693359,0.131226,0.691284,0,0,0
171,3.572519,1.465649,-6,-0.694946,0.12793,0.717651,0,0,0
174,5.89313,1.206107,-5.908397,-0.687866,0.125366,0.708862,0,0,0
177,8.732824,1.603053,-2.641221,-0.703003,0.192871,0.709106,0,0,0
180,11.389313,0.580153,0.091603,-0.676147,0.188965,0.685547,0,0,0
183,9.053435,2.091603,-3.312977,-0.69873,0.211426,0.704224,0,0,0
186,7.51145,1.251908,-2.900763,-0.683228,0.171631,0.697144,0,0,0
189,5.053435,3.160305,-5.709924,-0.703857,0.203003,0.704102,0,0,0
192,5.633588,2.687023,-2.015267,-0.692871,0.239502,0.693481,0,0,0
195,1.862595,1.618321,-5.740458,-0.679932,0.119629,0.662964,0,0,0
198,3.206107,1.343511,-7.099237,-0.714233,0.162109,0.707275,0,0,0
201,3.862595,0.412214,-4.442748,-0.684814,0.134766,0.689331,0,0,0
204,4.045802,1.480916,-5.877863,-0.678223,0.120605,0.720825,0,0,0
207,5.343511,2.10687,-4.70229,-0.705566,0.149048,0.714722,0,0,0
210,10.687023,1.587786,-0.381679,-0.707764,0.217285,0.717407,0,0,0
213,11.725191,0.778626,-1.114504,-0.680054,0.170776,0.673096,0,0,0
216,9.633588,2.030534,-2.351145,-0.692505,0.220581,0.703857,0,0,0
219,5.603053,1.694656,-3.29771,-0.689575,0.156982,0.692017,0,0,0
222,1.083969,2.564885,-6.290076,-0.715942,0.171021,0.714478,0,0,0
225,1.282443,1.526718,-5.175573,-0.702026,0.144043,0.684448,0,0,0
228,1.847328,1.832061,-5.725191,-0.700928,0.10437,0.695923,0,0,0
231,6.732824,1.908397,-4.503817,-0.688477,0.127319,0.703491,0,0,0
234,7.847328,2.625954,-4.59542,-0.690308,0.144409,0.707275,0,0,0
237,9.419847,2.152672,-5.450382,-0.708618,0.151001,0.690186,0,0,0
240,8.992366,1.557252,-4.137405,-0.678711,0.144897,0.69812,0,0,0
243,3.755725,2.641221,-8.824427,-0.697266,0.141479,0.707642,0,0,0
246,3.129771,3.160305,-8.442748,-0.70874,0.173706,0.707642,0,0,0
249,5.389313,1.587786,-6.687023,-0.675415,0.104614,0.685547,0,0,0
252,4.290076,3.969466,-9.435115,-0.725098,0.167847,0.691406,0,0,0
255,6.427481,1.145038,-5.572519,-0.676025,0.11377,0.681396,0,0,0
2,6.351145,2.534351,-9.175573,-0.710327,0.15564,0.710205,0,0,0
5,10.045802,2.549618,-5.328244,-0.700562,0.192139,0.699951,0,0,0
8,9.816794,2.396947,-4.305344,-0.673462,0.197754,0.687256,0,0,0
11,6.732824,2.687023,-10.503817,-0.710205,0.174561,0.695557,0,0,0
14,4.870229,2.48855,-6.610687,-0.698242,0.204834,0.720825,0,0,0
17,6.80916,2.916031,-6.167939,-0.693481,0.199463,0.680908,0,0,0
20,8.366412,1.832061,-6.259542,-0.670532,0.167358,0.678223,0,0,0
23,5.114504,3.40458,-9.435115,-0.726685,0.193848,0.718994,0,0,0
26,4.839695,1.007634,-6.061069,-0.680542,0.142944,0.66626,0,0,0
29,1.618321,2.396947,-9.938931,-0.690918,0.141724,0.697998,0,0,0
32,6.351145,1.954198,-5.725191,-0.702026,0.17395,0.724731,0,0,0
35,8.030534,2.061069,-4.641221,-0.693848,0.191406,0.682129,0,0,0
38,10.274809,1.480916,-2.717557,-0.681274,0.207764,0.677002,0,0,0
41,7.526718,1.938931,-6.061069,-0.687134,0.17627,0.688721,0,0,0
44,5.938931,2.167939,-8.015267,-0.71228,0.18457,0.715576,0,0,0
47,5.969466,1.664122,-5.145038,-0.69458,0.206909,0.689941,0,0,0
50,5.343511,1.465649,-5.969466,-0.677734,0.141724,0.679077,0,0,0
53,7.282443,1.847328,-4.320611,-0.704712,0.210083,0.714111,0,0,0
56,8.793893,0.732824,-4.564885,-0.679199,0.168823,0.661499,0,0,0
59,10.59542,1.343511,-3.908397,-0.696533,0.200073,0.68689,0,0,0
62,9.267176,1.099237,-4.80916,-0.695312,0.193359,0.6875,0,0,0
65,5.19084,1.312977,-7.694656,-0.692139,0.148071,0.700562,0,0,0
68,2.366412,0.900763,-7.557252,-0.698242,0.159058,0.72229,0,0,0
71,1.114504,1.51145,-10.335878,-0.69519,0.104492,0.715454,0,0,0
74,6.549618,1.206107,-5.29771,-0.68811,0.143433,0.716431,0,0,0
77,9.038168,0.10687,-4.366412,-0.677368,0.122559,0.687866,0,0,0
80,11.862595,1.007634,-4.290076,-0.695435,0.154297,0.714966,0,0,0
83,12.473282,0.519084,-2.671756,-0.686157,0.164062,0.706909,0,0,0
86,12.320611,1.343511,-3.923664,-0.706665,0.205933,0.711792,0,0,0
89,11.206107,0.152672,-3.099237,-0.685181,0.151489,0.681763,0,0,0
92,10.427481,1.022901,-5.038168,-0.695923,0.163574,0.701416,0,0,0
95,8.610687,1.114504,-5.145038,-0.707275,0.205444,0.699585,0,0,0
98,7.541985,0.534351,-4.70229,-0.660645,0.158691,0.675415,0,0,0
101,6.778626,1.541985,-5.114504,-0.687134,0.175049,0.736938,0,0,0
104,5.801527,1.053435,-5.572519,-0.69458,0.182129,0.717285,0,0,0
107,5.816794,1.129771,-4.992366,-0.68457,0.185547,0.690552,0,0,0
110,6.396947,0,-7.053435,-0.695557,0.134277,0.687012,0,0,0
113,5.282443,0.534351,-6.793893,-0.704712,0.161499,0.721558,0,0,0
116,7.129771,0.305344,-2.290076,-0.691284,0.182251,0.710938,0,0,0
119,8.335878,0.534351,-3.068702,-0.675049,0.140625,0.704956,0,0,0
122,9.648855,1.328244,-4.946565,-0.699463,0.16394,0.740723,0,0,0
125,8.412214,0.366412,-3.740458,-0.691528,0.161621,0.700195,0,0,0
128,10.549618,0.885496,-1.496183,-0.682129,0.171997,0.71875,0,0,0
131,6.839695,1.160305,-4.656489,-0.693604,0.167847,0.693115,0,0,0
134,6.885496,0.152672,-4.885496,-0.678467,0.127319,0.718628,0,0,0
137,5.755725,1.648855,-5.496183,-0.707886,0.161011,0.731323,0,0,0
140,11.083969,0.916031,0.610687,-0.688843,0.185059,0.706543,0,0,0
143,11.954198,0.351145,-1.709924,-0.681763,0.151245,0.689209,0,0,0
146,14.351145,0.412214,-1.160305,-0.691895,0.206177,0.707153,0,0,0
149,11.053435,0.198473,-3.877863,-0.695557,0.184082,0.686035,0,0,0
152,8.839695,0.061069,-2.167939,-0.684692,0.206787,0.708496,0,0,0
155,6.473282,0.824427,-3.40458,-0.699463,0.169067,0.705566,0,0,0
158,9.267176,0.396947,-1.312977,-0.694336,0.160645,0.715698,0,0,0
161,10.427481,0.992366,-3.007634,-0.701416,0.173096,0.692261,0,0,0
164,10.366412,-1.053435,-0.961832,-0.660034,0.08374,0.673218,0,0,0
167,10.381679,1.709924,-3.068702,-0.724365,0.194092,0.729492,0,0,0
170,10.167939,-0.381679,-0.427481,-0.680664,0.139771,0.675903,0,0,0
173,7.633588,0.70229,-4.625954,-0.708496,0.136963,0.715088,0,0,0
176,10.824427,0.763359,-1.40458,-0.703735,0.175903,0.723511,0,0,0
179,14.274809,0.198473,0.167939,-0.69043,0.145996,0.675171,0,0,0
182,14.961832,-0.045802,-0.625954,-0.686646,0.160034,0.683716,0,0,0
185,10.244275,0.305344,-4.351145,-0.709961,0.125366,0.708374,0,0,0
188,11.862595,0.091603,-3.175573,-0.71167,0.159912,0.710571,0,0,0
191,10.916031,-0.274809,-2.732824,-0.694336,0.111328,0.69458,0,0,0
194,12.793893,0.59542,-3.206107,-0.698853,0.138306,0.711426,0,0,0
197,13.89313,-0.366412,-2.458015,-0.692017,0.127441,0.708862,0,0,0
200,14.122137,0.900763,-3.923664,-0.698853,0.191772,0.706177,0,0,0
203,12.167939,0.10687,-4.916031,-0.71582,0.171265,0.694458,0,0,0
206,11.725191,-0.335878,-6.351145,-0.697021,0.130371,0.70874,0,0,0
209,13.053435,0.10687,-8.412214,-0.715332,0.15686,0.707153,0,0,0
212,15.099237,0.534351,-2.839695,-0.686279,0.206543,0.706787,0,0,0
215,15.480916,-0.320611,-3.328244,-0.694702,0.192505,0.684204,0,0,0
218,14.045802,-0.625954,-7.221374,-0.699829,0.170044,0.683716,0,0,0
221,12.442748,-0.564885,-6.580153,-0.70166,0.191162,0.706177,0,0,0
224,9.984733,0.641221,-7.709924,-0.709595,0.210449,0.70459,0,0,0
227,10.885496,-0.977099,-4.671756,-0.693848,0.165894,0.678467,0,0,0
230,12.854962,-0.030534,-6.198473,-0.696045,0.190063,0.708008,0,0,0
233,10.625954,-0.091603,-9.083969,-0.701416,0.160889,0.678955,0,0,0
236,12.091603,-0.549618,-6.885496,-0.689575,0.196777,0.688477,0,0,0
239,11.435115,0.091603,-6.320611,-0.691406,0.181763,0.687134,0,0,0
242,12.900763,0.152672,-5.236641,-0.700073,0.209473,0.683594,0,0,0
245,12.564885,-0.015267,-6.259542,-0.703247,0.18811,0.687866,0,0,0
248,14.961832,-0.70229,-3.725191,-0.684204,0.210449,0.67334,0,0,0
251,10.70229,0.10687,-8.946565,-0.688843,0.16626,0.674561,0,0,0
254,8.824427,0.473282,-9.557252,-0.717529,0.180664,0.713745,0,0,0
1,9.694656,0.381679,-6.793893,-0.69873,0.170288,0.692749,0,0,0
4,12.381679,1.083969,-3.603053,-0.706055,0.239624,0.688965,0,0,0
7,15.969466,0.335878,-3.664122,-0.694336,0.186035,0.685303,0,0,0
10,12.625954,0.305344,-7.251908,-0.709351,0.198242,0.665405,0,0,0
13,13.083969,0.839695,-3.664122,-0.691772,0.229614,0.692261,0,0,0
16,12.381679,1.267176,-2.671756,-0.691528,0.207275,0.685181,0,0,0
19,13.755725,0.839695,-3.114504,-0.684204,0.172974,0.675049,0,0,0
22,13.679389,1.343511,-5.40458,-0.706909,0.178711,0.681885,0,0,0
25,15.083969,1.175573,-2.717557,-0.695557,0.219238,0.69165,0,0,0
28,10.534351,1.587786,-5.816794,-0.69165,0.171021,0.69458,0,0,0
31,10.900763,1.89313,-4.473282,-0.706787,0.189209,0.710571,0,0,0
34,11.847328,1.51145,-3.206107,-0.698853,0.175537,0.678589,0,0,0
37,14.610687,1.603053,-1.969466,-0.686523,0.199707,0.69165,0,0,0
40,16.091603,1.419847,-2.412214,-0.708008,0.210571,0.689819,0,0,0
43,14.305344,0.961832,-2.687023,-0.682983,0.178833,0.665771,0,0,0
46,13.358779,1.603053,-3.038168,-0.690063,0.200562,0.693359,0,0,0
49,11.51145,2.320611,-2.885496,-0.706787,0.213501,0.697388,0,0,0
52,13.603053,1.648855,-1.480916,-0.681396,0.170776,0.689209,0,0,0
55,12.625954,1.374046,-5.480916,-0.694458,0.137207,0.684448,0,0,0
58,12.290076,1.969466,-4.458015,-0.699829,0.17981,0.706665,0,0,0
61,12.229008,1.694656,-3.267176,-0.686401,0.177734,0.697998,0,0,0
64,12.625954,1.862595,-5.282443,-0.71106,0.187256,0.6875,0,0,0
67,13.618321,0.870229,-2.137405,-0.688843,0.163574,0.688354,0,0,0
70,15.419847,1.083969,-3.984733,-0.685303,0.181519,0.691895,0,0,0
73,13.572519,1.954198,-4.961832,-0.697754,0.216431,0.706665,0,0,0
76,9.587786,1.435115,-6.717557,-0.702515,0.170776,0.685791,0,0,0
79,8.183206,2.091603,-5.908397,-0.713867,0.191895,0.71228,0,0,0
82,8.442748,1.053435,-6.48855,-0.705933,0.137817,0.677246,0,0,0
85,12.977099,1.40458,-3.40458,-0.688232,0.157349,0.716431,0,0,0
88,12.763359,1.755725,-6.381679,-0.692993,0.162842,0.692871,0,0,0
91,14.045802,2.274809,-4.305344,-0.704102,0.244507,0.718872,0,0,0
94,13.053435,1.832061,-3.312977,-0.698242,0.231689,0.679565,0,0,0
97,13.389313,1.145038,-4.076336,-0.666748,0.177612,0.682983,0,0,0
100,11.282443,1.51145,-7.068702,-0.690186,0.151123,0.707886,0,0,0
103,9.221374,2.305344,-8.198473,-0.716675,0.206421,0.732178,0,0,0
106,6.885496,1.847328,-7.526718,-0.698608,0.176025,0.681885,0,0,0
109,6.137405,0.946565,-6.396947,-0.681274,0.134888,0.690552,0,0,0
112,6.610687,1.877863,-9.78626,-0.721802,0.161255,0.717896,0,0,0
115,13.465649,0.320611,-2.916031,-0.678467,0.194702,0.682007,0,0,0
118,14.167939,1.740458,-4.839695,-0.703369,0.252075,0.689087,0,0,0
121,15.282443,0.21374,-1.664122,-0.675171,0.209717,0.681763,0,0,0
124,11.038168,0.625954,-7.648855,-0.690674,0.207275,0.68103,0,0,0
127,2.534351,0.839695,-12.320611,-0.719238,0.212036,0.673706,0,0,0
130,-3.038168,0.259542,-11.709924,-0.698242,0.136475,0.698853,0,0,0
133,-0.580153,1.587786,-9.770992,-0.714722,0.192383,0.69458,0,0,0
136,4.458015,-0.427481,-8.061069,-0.690796,0.11084,0.682007,0,0,0
139,8.427481,0.748092,-8.48855,-0.707397,0.208496,0.704834,0,0,0
142,8,-0.763359,-8.59542,-0.705688,0.181274,0.656128,0,0,0
145,7.465649,-0.152672,-7.160305,-0.700562,0.217896,0.675049,0,0,0
148,6.122137,0.748092,-7.160305,-0.704224,0.227905,0.689087,0,0,0
151,6.442748,0.305344,-8.366412,-0.693237,0.180176,0.665039,0,0,0
154,4.061069,0.961832,-10.977099,-0.72229,0.194092,0.676392,0,0,0
157,0.015267,0.10687,-13.145038,-0.713867,0.127686,0.679443,0,0,0
160,1.236641,0.778626,-9.587786,-0.703003,0.159546,0.707275,0,0,0
163,2.519084,0.290076,-10.931298,-0.688477,0.135864,0.663574,0,0,0
166,3.847328,0.229008,-11.587786,-0.7146,0.151001,0.69812,0,0,0
169,4.183206,-0.580153,-12.564885,-0.705444,0.127197,0.680542,0,0,0
172,6.763359,0.625954,-9.877863,-0.713867,0.221558,0.692749,0,0,0
175,3.450382,-0.580153,-14.10687,-0.699829,0.100464,0.674927,0,0,0
178,1.847328,-0.091603,-15.526718,-0.707275,0.126221,0.702271,0,0,0
181,5.145038,0.473282,-10.977099,-0.716309,0.193237,0.705444,0,0,0
184,2.778626,-1.358779,-13.648855,-0.690308,0.091553,0.654175,0,0,0
187,4.564885,-0.21374,-14.717557,-0.718628,0.157959,0.71814,0,0,0
190,4.458015,-0.152672,-13.19084,-0.70105,0.162964,0.694946,0,0,0
193,8.519084,-1.083969,-11.709924,-0.702759,0.159302,0.680908,0,0,0
196,12.977099,-1.236641,-9.40458,-0.683105,0.177368,0.684082,0,0,0
199,5.541985,-1.419847,-17.007634,-0.706909,0.13147,0.680542,0,0,0
202,-0.183206,-1.725191,-21.175573,-0.735474,0.130493,0.703003,0,0,0
205,-2.167939,-2.351145,-19.114504,-0.704224,0.091187,0.679932,0,0,0
208,0.061069,-1.709924,-19.801527,-0.717163,0.091675,0.665161,0,0,0
211,4.519084,-2.48855,-17.389313,-0.715088,0.111084,0.702271,0,0,0
214,6.519084,-2.21374,-17.267176,-0.710327,0.125854,0.697388,0,0,0
217,8.992366,-2.671756,-18.916031,-0.713379,0.122559,0.673462,0,0,0
220,10.885496,-3.145038,-14.519084,-0.695435,0.157593,0.696167,0,0,0
223,8.717557,-3.908397,-20.656489,-0.723389,0.108032,0.672607,0,0,0
226,6.412214,-4.21374,-19.832061,-0.693237,0.116455,0.695068,0,0,0
229,2.992366,-2.335878,-21.053435,-0.72229,0.15979,0.692261,0,0,0
232,7.557252,-3.648855,-16.458015,-0.689941,0.11499,0.682373,0,0,0
235,8.167939,-2.977099,-18,-0.706299,0.149902,0.697266,0,0,0
238,6.549618,-2.381679,-19.725191,-0.732666,0.19519,0.686157,0,0,0
241,10.870229,-3.603053,-15.51145,-0.7052,0.13916,0.680298,0,0,0
244,18.900763,-3.160305,-10.229008,-0.693726,0.237183,0.695679,0,0,0
247,13.770992,-2.778626,-15.343511,-0.724365,0.185547,0.707397,0,0,0
250,15.29771,-3.267176,-12.717557,-0.698364,0.218994,0.694092,0,0,0
253,11.480916,-2.290076,-12.534351,-0.697021,0.23645,0.686523,0,0,0
0,10.229008,-3.694656,-16.381679,-0.699707,0.103271,0.683228,0,0,0
3,2.137405,-3.374046,-21.435115,-0.737793,0.111816,0.720093,0,0,0
6,4.549618,-4.030534,-16.610687,-0.703369,0.092529,0.695679,0,0,0
9,2.091603,-2.656489,-21.282443,-0.744019,0.099121,0.691406,0,0,0
12,6.335878,-4.244275,-18.274809,-0.725098,0.062622,0.700317,0,0,0
15,13.19084,-4.137405,-15.450382,-0.703979,0.062012,0.710205,0,0,0
18,13.358779,-3.541985,-18.076336,-0.72229,0.094238,0.683594,0,0,0
21,12.931298,-4.091603,-18.366412,-0.718262,0.066284,0.691528,0,0,0
24,12.351145,-3.114504,-17.770992,-0.719482,0.143555,0.681152,0,0,0
27,10.137405,-2.10687,-19.694656,-0.72876,0.144897,0.688721,0,0,0
30,10.473282,-3.29771,-20.061069,-0.728516,0.091431,0.686768,0,0,0
33,15.450382,-2.580153,-15.78626,-0.702759,0.167114,0.707886,0,0,0
36,14.763359,-2.305344,-17.954198,-0.699341,0.139771,0.693359,0,0,0
39,14.687023,-2.137405,-18.427481,-0.74353,0.221313,0.672485,0,0,0
42,20.061069,-3.236641,-10.641221,-0.69397,0.211304,0.653442,0,0,0
45,20.549618,-1.862595,-13.755725,-0.705688,0.237549,0.637573,0,0,0
48,17.694656,-2.625954,-13.175573,-0.702148,0.222534,0.675415,0,0,0
51,15.725191,-1.374046,-13.633588,-0.722534,0.269043,0.68811,0,0,0
54,12.70229,-2.076336,-9.618321,-0.676514,0.242676,0.661255,0,0,0
57,9.450382,-0.290076,-15.328244,-0.758545,0.256592,0.67041,0,0,0
60,18.977099,-2.732824,-3.435115,-0.661865,0.204712,0.651855,0,0,0
63,14.335878,-0.122137,-13.099237,-0.719116,0.204834,0.673218,0,0,0
66,19.526718,-0.442748,-3.633588,-0.687866,0.293457,0.696533,0,0,0
69,13.099237,-1.358779,-10.137405,-0.69165,0.14502,0.649658,0,0,0
72,13.89313,0.10687,-8.503817,-0.728271,0.267578,0.71521,0,0,0
75,10.045802,-0.625954,-6.061069,-0.698364,0.175903,0.673584,0,0,0
78,11.374046,0.015267,-9.175573,-0.711182,0.183594,0.680542,0,0,0
81,10.427481,-0.412214,-6.48855,-0.703735,0.197876,0.68335,0,0,0
84,7.572519,-0.259542,-8.137405,-0.693726,0.128052,0.688599,0,0,0
87,9.312977,1.374046,-7.984733,-0.745728,0.233643,0.724365,0,0,0
90,12.824427,-1.389313,-4.748092,-0.665527,0.131104,0.663208,0,0,0
93,9.267176,1.129771,-10.80916,-0.739014,0.203247,0.707153,0,0,0
96,13.221374,-0.946565,-4.183206,-0.673584,0.157715,0.674438,0,0,0
99,9.358779,0.412214,-10.961832,-0.694214,0.140381,0.678223,0,0,0
102,5.755725,0.778626,-13.221374,-0.734375,0.182129,0.695801,0,0,0
105,5.862595,-0.21374,-7.984733,-0.701416,0.14856,0.673218,0,0,0
108,10.137405,-0.671756,-9.435115,-0.686157,0.122681,0.680298,0,0,0
111,9.083969,0.427481,-10.549618,-0.699707,0.151123,0.697754,0,0,0
114,12.442748,0.580153,-6.900763,-0.710083,0.220825,0.696411,0,0,0
117,18.335878,0.259542,-2.381679,-0.667358,0.227905,0.658691,0,0,0
120,14,0.748092,-8.152672,-0.718994,0.245972,0.674194,0,0,0
123,4.824427,-0.167939,-11.129771,-0.698242,0.157471,0.682739,0,0,0
126,3.099237,0.427481,-11.282443,-0.717041,0.196777,0.715576,0,0,0
129,8,-0.366412,-6.351145,-0.668701,0.128296,0.671143,0,0,0
132,10.748092,0.229008,-7.129771,-0.697998,0.163818,0.685425,0,0,0
135,9.465649,0.030534,-10.625954,-0.719482,0.15271,0.678223,0,0,0
138,10.931298,-0.290076,-8.656489,-0.714111,0.224976,0.657471,0,0,0
141,6.992366,-1.770992,-10.778626,-0.687012,0.100098,0.639648,0,0,0
144,3.175573,0.610687,-12.366412,-0.743164,0.174683,0.707031,0,0,0
147,6.183206,-0.305344,-10.412214,-0.710449,0.162964,0.666626,0,0,0
150,12.076336,0.259542,-5.847328,-0.687866,0.178955,0.693237,0,0,0
153,12.854962,0.305344,-10.442748,-0.71814,0.144897,0.692139,0,0,0
156,16.198473,-0.519084,-6.396947,-0.68811,0.18396,0.671753,0,0,0
159,12.534351,0.229008,-9.740458,-0.697876,0.183716,0.678589,0,0,0
162,11.969466,-0.458015,-7.694656,-0.68811,0.231934,0.700684,0,0,0
165,4.549618,0.427481,-15.114504,-0.726685,0.157104,0.701904,0,0,0
168,4.503817,-0.305344,-12.549618,-0.720947,0.193359,0.680176,0,0,0
171,12.48855,-1.022901,-7.053435,-0.688354,0.174683,0.659302,0,0,0
174,15.419847,-0.198473,-10.763359,-0.720093,0.229004,0.663696,0,0,0
177,17.526718,-1.496183,-6.625954,-0.71936,0.244751,0.658936,0,0,0
180,18.244275,-2.290076,-6.580153,-0.681274,0.208008,0.654907,0,0,0
183,12.824427,-0.458015,-7.19084,-0.702148,0.301147,0.679321,0,0,0
186,7.664122,-1.374046,-7.89313,-0.687378,0.175293,0.676392,0,0,0
189,3.053435,-0.137405,-12.885496,-0.729858,0.202637,0.700439,0,0,0
192,4.687023,-2.152672,-9.603053,-0.682983,0.137573,0.692505,0,0,0
195,5.526718,-0.671756,-13.587786,-0.724365,0.148071,0.692017,0,0,0
198,8.183206,-1.557252,-6.916031,-0.705566,0.17749,0.694702,0,0,0
201,16.610687,-1.801527,-3.557252,-0.680176,0.189087,0.694946,0,0,0
204,12.778626,-1.007634,-12.992366,-0.724487,0.163208,0.673218,0,0,0
207,10.305344,-0.778626,-10.015267,-0.72937,0.201416,0.704224,0,0,0
210,9.465649,-0.351145,-7.633588,-0.703613,0.221436,0.663452,0,0,0
213,4.656489,-0.152672,-15.343511,-0.715454,0.12561,0.6875,0,0,0
216,7.038168,-0.641221,-13.343511,-0.737305,0.141846,0.698608,0,0,0
219,11.083969,-1.89313,-10.10687,-0.669312,0.098022,0.651123,0,0,0
222,13.755725,-0.244275,-11.832061,-0.685913,0.121338,0.706177,0,0,0
225,9.557252,-0.320611,-16.030534,-0.740601,0.148804,0.674805,0,0,0
228,9.160305,-1.587786,-13.954198,-0.710449,0.138306,0.69397,0,0,0
231,10.916031,-1.083969,-15.633588,-0.707886,0.152588,0.685181,0,0,0
234,11.618321,-0.122137,-12.641221,-0.700562,0.197632,0.683228,0,0,0
237,16.839695,-0.778626,-7.465649,-0.694824,0.239868,0.673828,0,0,0
240,12.854962,-1.236641,-13.022901,-0.695312,0.168457,0.696045,0,0,0
243,16.549618,0.549618,-8.59542,-0.713867,0.308228,0.723267,0,0,0
246,12.351145,-0.152672,-13.083969,-0.696655,0.185181,0.62561,0,0,0
249,4.549618,-0.091603,-14.778626,-0.72229,0.255371,0.690796,0,0,0
252,3.923664,0.549618,-12.656489,-0.723022,0.239014,0.693481,0,0,0
255,7.129771,-0.122137,-11.770992,-0.689209,0.172607,0.661499,0,0,0
2,9.603053,0.931298,-11.435115,-0.707397,0.178833,0.683594,0,0,0
5,9.877863,1.312977,-9.816794,-0.726685,0.226929,0.679443,0,0,0
8,10.48855,0.427481,-12.442748,-0.699463,0.132202,0.670288,0,0,0
11,5.267176,1.969466,-15.312977,-0.738037,0.20166,0.695435,0,0,0
14,7.236641,0.854962,-11.129771,-0.70874,0.155029,0.674072,0,0,0
17,8.458015,1.083969,-13.526718,-0.689453,0.114868,0.672119,0,0,0
20,8.961832,2.030534,-13.648855,-0.706787,0.143555,0.692993,0,0,0
23,7.755725,1.694656,-14.519084,-0.722534,0.15564,0.677979,0,0,0
26,12.015267,1.053435,-10.778626,-0.678711,0.147095,0.669678,0,0,0
29,11.832061,2.442748,-10.610687,-0.708862,0.181641,0.674072,0,0,0
32,13.908397,1.908397,-9.419847,-0.706543,0.174561,0.687622,0,0,0
35,12.793893,1.557252,-11.908397,-0.680664,0.167236,0.667236,0,0,0
38,5.496183,4.290076,-19.114504,-0.735229,0.184326,0.710327,0,0,0
41,6.351145,2.580153,-12.885496,-0.733887,0.211182,0.676025,0,0,0
44,7.877863,2.59542,-11.038168,-0.679565,0.152954,0.67041,0,0,0
47,4.534351,3.312977,-17.038168,-0.704102,0.11792,0.682861,0,0,0
50,7.755725,2.610687,-14.870229,-0.732178,0.130493,0.716553,0,0,0
53,8,3.633588,-15.664122,-0.728394,0.142822,0.671021,0,0,0
56,17.862595,2.427481,-5.816794,-0.689575,0.197754,0.68103,0,0,0
59,14.671756,2.931298,-11.664122,-0.697632,0.146362,0.664062,0,0,0
62,15.801527,3.282443,-10.610687,-0.7229,0.244263,0.700684,0,0,0
65,9.358779,2.671756,-14.244275,-0.697021,0.149902,0.657471,0,0,0
68,5.129771,3.557252,-18.259542,-0.736328,0.137573,0.708374,0,0,0
71,8.778626,3.129771,-11.709924,-0.700439,0.149902,0.682739,0,0,0
74,13.007634,2.534351,-10.473282,-0.677124,0.139404,0.688843,0,0,0
77,12.671756,2.854962,-16.534351,-0.719604,0.134155,0.696777,0,0,0
80,10.549618,3.038168,-14.580153,-0.731934,0.203125,0.699219,0,0,0
83,11.969466,1.496183,-13.374046,-0.689941,0.113403,0.655762,0,0,0
86,8.748092,3.389313,-18.290076,-0.715942,0.141602,0.705811,0,0,0
89,8.900763,2.900763,-16.748092,-0.724976,0.125366,0.69812,0,0,0
92,9.053435,2.824427,-19.083969,-0.731079,0.115112,0.658569,0,0,0
95,18.793893,2.48855,-10.442748,-0.682861,0.177612,0.666016,0,0,0
98,19.19084,3.221374,-13.89313,-0.711304,0.186157,0.675903,0,0,0
101,11.29771,2.473282,-20.335878,-0.710083,0.14917,0.688232,0,0,0
104,2.824427,3.664122,-24.198473,-0.742065,0.150146,0.729248,0,0,0
107,5.175573,2.610687,-17.908397,-0.730469,0.146973,0.680664,0,0,0
110,12.152672,2.045802,-18.763359,-0.679199,0.055786,0.64502,0,0,0
113,14.900763,2.167939,-22.793893,-0.733887,0.094849,0.683105,0,0,0
116,13.29771,2.290076,-18.580153,-0.715698,0.178833,0.710938,0,0,0
119,11.725191,2.351145,-18.412214,-0.687866,0.179199,0.661743,0,0,0
122,17.343511,2.167939,-14.732824,-0.703979,0.189331,0.681396,0,0,0
125,17.343511,2.21374,-16.290076,-0.716553,0.212036,0.677856,0,0,0
128,14.076336,1.557252,-18.427481,-0.69165,0.178589,0.653442,0,0,0
131,9.694656,2.305344,-19.679389,-0.743774,0.264648,0.654419,0,0,0
134,14.870229,0.229008,-13.755725,-0.677979,0.146729,0.659546,0,0,0
137,11.022901,2.427481,-21.419847,-0.716553,0.188232,0.669189,0,0,0
140,10.748092,1.526718,-15.328244,-0.706665,0.185791,0.688599,0,0,0
143,12.656489,1.709924,-16.748092,-0.697754,0.189819,0.685303,0,0,0
146,11.343511,2.351145,-16.778626,-0.734131,0.237793,0.669189,0,0,0
149,17.312977,1.419847,-7.755725,-0.69519,0.254395,0.662231,0,0,0
152,18.717557,0.59542,-9.877863,-0.686157,0.171265,0.654053,0,0,0
155,12.503817,1.221374,-20.473282,-0.721313,0.159546,0.686523,0,0,0
158,1.801527,0.366412,-22.656489,-0.745483,0.106567,0.696045,0,0,0
161,8.778626,2.351145,-12.061069,-0.705566,0.215454,0.70166,0,0,0
164,18.259542,1.312977,-8.091603,-0.662964,0.143188,0.641968,0,0,0
167,20.091603,1.022901,-15.038168,-0.745728,0.152588,0.688965,0,0,0
170,20.396947,1.068702,-9.709924,-0.7146,0.276611,0.693604,0,0,0
173,16.335878,1.374046,-9.877863,-0.699463,0.25354,0.634521,0,0,0
176,8.21374,0.885496,-14.519084,-0.715332,0.146606,0.66272,0,0,0
179,10.137405,2.030534,-13.435115,-0.723389,0.186401,0.69873,0,0,0
182,14.763359,1.389313,-10.80916,-0.706665,0.179443,0.682617,0,0,0
185,16.381679,2.030534,-10.70229,-0.704468,0.244629,0.66394,0,0,0
188,13.603053,0.717557,-11.236641,-0.725342,0.203125,0.660889,0,0,0
191,15.236641,1.358779,-7.587786,-0.709717,0.255737,0.666626,0,0,0
194,14.641221,0.534351,-8.977099,-0.694336,0.198486,0.645996,0,0,0
197,9.465649,0.778626,-13.206107,-0.740845,0.229126,0.676636,0,0,0
200,10.625954,-0.152672,-9.877863,-0.703369,0.179443,0.671997,0,0,0
203,11.465649,0.778626,-8.305344,-0.695923,0.183716,0.680054,0,0,0
206,15.251908,0.564885,-9.29771,-0.712402,0.172119,0.693848,0,0,0
209,14.854962,-0.183206,-10.259542,-0.704102,0.190552,0.665649,0,0,0
212,11.19084,1.099237,-9.770992,-0.725342,0.260376,0.683105,0,0,0
215,10.122137,-1.114504,-9.51145,-0.686157,0.101074,0.675171,0,0,0
218,7.709924,1.19084,-13.694656,-0.729736,0.196899,0.712158,0,0,0
221,8.152672,-1.526718,-12.519084,-0.697998,0.102905,0.674805,0,0,0
224,9.832061,1.129771,-10.519084,-0.740356,0.296631,0.693726,0,0,0
227,14.671756,-1.969466,-4.931298,-0.688965,0.173706,0.63855,0,0,0
230,14.198473,-0.335878,-10.030534,-0.713623,0.260498,0.661743,0,0,0
233,9.221374,-1.160305,-11.679389,-0.727783,0.235107,0.665527,0,0,0
236,8.946565,-0.412214,-7.312977,-0.714355,0.280029,0.673218,0,0,0
239,7.969466,-0.870229,-9.51145,-0.713501,0.207031,0.626587,0,0,0
242,9.801527,-1.908397,-7.221374,-0.689819,0.184448,0.656128,0,0,0
245,4.152672,-0.625954,-13.40458,-0.746216,0.207031,0.679443,0,0,0
248,7.770992,-1.969466,-6.503817,-0.717651,0.237671,0.657104,0,0,0
251,8,-0.48855,-5.694656,-0.697021,0.246582,0.662476,0,0,0
254,6.793893,-1.847328,-9.389313,-0.723999,0.167114,0.661621,0,0,0
1,3.832061,-0.931298,-12.320611,-0.730469,0.170898,0.673584,0,0,0
4,5.389313,-2.610687,-10.473282,-0.715332,0.099731,0.657593,0,0,0
7,4.381679,-1.312977,-11.862595,-0.715332,0.130737,0.679077,0,0,0
10,7.954198,-0.70229,-7.40458,-0.708252,0.177246,0.69165,0,0,0
13,10.549618,-0.48855,-8.931298,-0.710693,0.110596,0.692627,0,0,0
16,15.114504,-0.320611,-7.068702,-0.7229,0.217529,0.671875,0,0,0
19,16.076336,-1.053435,-4.519084,-0.705811,0.214722,0.651978,0,0,0
22,10.091603,-0.229008,-8.21374,-0.710205,0.218994,0.670898,0,0,0
25,6.458015,-0.396947,-13.29771,-0.729004,0.158447,0.678711,0,0,0
28,5.51145,0.10687,-11.709924,-0.713745,0.169922,0.676147,0,0,0
31,11.251908,0.48855,-6.564885,-0.689697,0.162109,0.678345,0,0,0
34,12.076336,1.114504,-7.923664,-0.705688,0.200439,0.682007,0,0,0
37,11.877863,0.412214,-8.748092,-0.716797,0.19751,0.694092,0,0,0
40,11.099237,0.244275,-8.534351,-0.69519,0.187256,0.661865,0,0,0
43,5.053435,-0.167939,-15.557252,-0.720825,0.095093,0.677979,0,0,0
46,5.19084,0.748092,-10.091603,-0.717773,0.173096,0.724243,0,0,0
49,11.557252,0.992366,-6.564885,-0.700928,0.174805,0.662354,0,0,0
52,16.503817,1.267176,-5.053435,-0.69812,0.213135,0.666626,0,0,0
55,15.068702,0.717557,-9.114504,-0.713135,0.197754,0.673706,0,0,0
58,10.152672,0.061069,-12.427481,-0.726562,0.175049,0.655273,0,0,0
61,8.641221,1.145038,-9.725191,-0.716919,0.22876,0.660767,0,0,0
64,7.496183,1.038168,-8.167939,-0.709717,0.189331,0.65332,0,0,0
67,8.625954,1.221374,-11.877863,-0.722534,0.14563,0.691528,0,0,0
70,7.923664,0.503817,-13.969466,-0.731567,0.134521,0.699951,0,0,0
73,13.465649,1.099237,-7.435115,-0.708862,0.197266,0.689453,0,0,0
76,13.175573,0.183206,-10.259542,-0.700317,0.138794,0.661865,0,0,0
79,8.412214,1.29771,-14.717557,-0.747925,0.205322,0.699219,0,0,0
82,10.580153,0.152672,-8.916031,-0.701538,0.170166,0.655396,0,0,0
85,13.603053,0.961832,-8.656489,-0.698486,0.205078,0.667847,0,0,0
88,13.954198,0.427481,-11.694656,-0.719971,0.17334,0.673584,0,0,0
91,13.022901,0.59542,-11.374046,-0.710083,0.174438,0.684204,0,0,0
94,13.053435,0.885496,-9.801527,-0.716309,0.225464,0.667114,0,0,0
97,11.465649,0.427481,-9.969466,-0.706299,0.202759,0.657959,0,0,0
100,12.290076,1.083969,-9.114504,-0.709839,0.227173,0.689575,0,0,0
103,10.564885,1.007634,-10.48855,-0.708984,0.197388,0.665649,0,0,0
106,9.145038,0.580153,-11.725191,-0.712891,0.191162,0.650757,0,0,0
109,10.48855,1.694656,-6.717557,-0.715576,0.254028,0.682251,0,0,0
112,12.916031,1.29771,-8.045802,-0.715942,0.193726,0.655029,0,0,0
115,11.236641,0.290076,-11.541985,-0.719116,0.162964,0.656982,0,0,0
118,8.48855,0.900763,-13.832061,-0.733398,0.173218,0.688721,0,0,0
121,7.145038,0.931298,-12.70229,-0.727173,0.18811,0.67334,0,0,0
124,8.274809,0.900763,-11.969466,-0.699951,0.102295,0.701294,0,0,0
127,7.267176,1.51145,-14.259542,-0.75061,0.178345,0.686768,0,0,0
130,10.320611,-0.076336,-12.854962,-0.714966,0.101685,0.678589,0,0,0
133,13.557252,0.70229,-14.473282,-0.721191,0.120728,0.70459,0,0,0
136,14.259542,-0.045802,-13.633588,-0.713257,0.14209,0.682739,0,0,0
139,11.709924,0.045802,-14.442748,-0.721436,0.169312,0.670044,0,0,0
142,14.061069,-0.045802,-13.618321,-0.712036,0.164917,0.682129,0,0,0
145,11.557252,-0.091603,-16.396947,-0.725342,0.194214,0.670044,0,0,0
148,11.770992,-0.10687,-17.450382,-0.732422,0.186523,0.673828,0,0,0
151,12.137405,-1.099237,-14.977099,-0.709961,0.179199,0.658691,0,0,0
154,13.389313,-0.519084,-16.992366,-0.730957,0.196777,0.665405,0,0,0
157,14.21374,-1.099237,-15.450382,-0.713013,0.204468,0.641724,0,0,0
160,10.366412,-1.129771,-18.335878,-0.728638,0.202148,0.642944,0,0,0
163,12.732824,-0.687023,-12.045802,-0.710449,0.246094,0.68396,0,0,0
166,11.053435,-1.083969,-14.854962,-0.709839,0.178833,0.661011,0,0,0
169,9.877863,-1.145038,-18.122137,-0.723267,0.14978,0.678589,0,0,0
172,6.687023,-0.580153,-19.389313,-0.748657,0.191284,0.674805,0,0,0
175,12.519084,-1.389313,-11.114504,-0.700195,0.168579,0.648071,0,0,0
178,13.648855,-1.068702,-17.099237,-0.719482,0.128052,0.68457,0,0,0
181,8.977099,-1.160305,-21.557252,-0.735474,0.12085,0.691528,0,0,0
184,7.175573,-1.175573,-20.992366,-0.732422,0.098267,0.690186,0,0,0
187,14,-0.396947,-14.427481,-0.707642,0.175049,0.678955,0,0,0
190,17.816794,-1.129771,-13.801527,-0.695679,0.124756,0.655884,0,0,0
193,16.076336,0.076336,-15.450382,-0.724731,0.238037,0.688354,0,0,0
196,14.122137,-0.229008,-14.824427,-0.722412,0.248657,0.65686,0,0,0
199,14.21374,-0.885496,-13.312977,-0.709961,0.206177,0.669067,0,0,0
202,13.572519,-0.473282,-16.305344,-0.717896,0.193604,0.685791,0,0,0
205,9.938931,0.183206,-17.389313,-0.729248,0.216187,0.680786,0,0,0
208,14.48855,-0.656489,-12.427481,-0.690796,0.148438,0.673584,0,0,0
211,16.580153,1.145038,-12.167939,-0.724731,0.251343,0.67981,0,0,0
214,22.183206,0.564885,-5.114504,-0.686035,0.25708,0.640869,0,0,0
217,17.267176,0.778626,-12.167939,-0.717896,0.195923,0.651489,0,0,0
220,12.977099,1.099237,-12.778626,-0.726196,0.227783,0.691162,0,0,0
223,10.824427,2.137405,-9.389313,-0.713379,0.238159,0.664673,0,0,0
226,10.641221,2.076336,-8.946565,-0.691895,0.165527,0.66333,0,0,0
229,12.900763,3.633588,-9.038168,-0.718262,0.199341,0.678589,0,0,0
232,13.923664,2.442748,-9.755725,-0.709473,0.126221,0.663574,0,0,0
235,11.618321,3.343511,-13.740458,-0.739868,0.181763,0.700073,0,0,0
238,12.916031,3.29771,-6.916031,-0.725586,0.201782,0.675171,0,0,0
241,21.78626,3.068702,-1.526718,-0.680542,0.190552,0.672852,0,0,0
244,18.732824,4.70229,-9.038168,-0.733154,0.21582,0.686035,0,0,0
247,15.89313,4.580153,-3.801527,-0.732056,0.285034,0.671753,0,0,0
250,13.709924,3.664122,-6.534351,-0.703613,0.193848,0.64502,0,0,0
253,10.59542,4.748092,-11.709924,-0.749512,0.225342,0.659668,0,0,0
0,12.320611,4.381679,-4.916031,-0.704834,0.189941,0.661377,0,0,0
3,11.648855,5.694656,-6.977099,-0.698364,0.200195,0.657227,0,0,0
6,11.526718,5.480916,-8.503817,-0.728882,0.187744,0.688843,0,0,0
9,7.740458,4.732824,-10.244275,-0.727051,0.151245,0.672974,0,0,0
12,9.114504,4.992366,-10.122137,-0.722778,0.135254,0.667603,0,0,0
15,14.167939,6.122137,-6.091603,-0.719238,0.201294,0.661987,0,0,0
18,14.396947,5.175573,-5.236641,-0.718994,0.169067,0.654541,0,0,0
21,14.412214,5.603053,-8.732824,-0.736328,0.183594,0.66626,0,0,0
24,13.89313,5.389313,-7.465649,-0.732544,0.193604,0.666504,0,0,0
27,16.412214,4.900763,-4.503817,-0.697388,0.181274,0.641479,0,0,0
30,11.206107,7.282443,-9.877863,-0.746704,0.252197,0.640015,0,0,0
33,8.732824,4.564885,-6.977099,-0.714844,0.166504,0.655151,0,0,0
36,7.145038,6.015267,-9.862595,-0.728516,0.216919,0.669067,0,0,0
39,8.580153,5.068702,-9.908397,-0.71582,0.148315,0.64978,0,0,0
42,5.251908,5.114504,-12.305344,-0.718506,0.117676,0.679565,0,0,0
45,4.687023,6.122137,-14.931298,-0.759888,0.185913,0.671631,0,0,0
48,13.083969,6.030534,-2.015267,-0.715942,0.23999,0.643799,0,0,0
51,15.877863,5.679389,-7.206107,-0.722534,0.174683,0.628174,0,0,0
54,15.083969,5.328244,-10.519084,-0.724854,0.179565,0.660156,0,0,0
57,4.167939,5.160305,-15.969466,-0.72937,0.139038,0.67334,0,0,0
60,2,6.396947,-11.068702,-0.707397,0.186157,0.689819,0,0,0
63,2.961832,5.419847,-14.366412,-0.740723,0.109375,0.650391,0,0,0
66,10.061069,5.51145,-12.122137,-0.713745,0.129517,0.670776,0,0,0
69,10.412214,6.259542,-13.007634,-0.735962,0.199097,0.654175,0,0,0
72,7.251908,4.763359,-13.725191,-0.716553,0.162354,0.645386,0,0,0
75,0.870229,4.656489,-18.946565,-0.740234,0.168335,0.671509,0,0,0
78,1.618321,4.412214,-15.603053,-0.724487,0.158569,0.671875,0,0,0
81,3.40458,3.419847,-17.129771,-0.719727,0.094971,0.670532,0,0,0
84,9.389313,4.244275,-17.145038,-0.724487,0.166138,0.684082,0,0,0
87,12.885496,4.458015,-10.427481,-0.717529,0.259888,0.654663,0,0,0
90,9.938931,2.48855,-12.335878,-0.698242,0.178833,0.635742,0,0,0
93,3.480916,3.877863,-21.160305,-0.765747,0.222412,0.687988,0,0,0
96,-1.709924,1.648855,-17.709924,-0.727661,0.150757,0.651855,0,0,0
99,4.458015,2.534351,-16.687023,-0.719604,0.129517,0.673096,0,0,0
102,10.992366,3.78626,-9.89313,-0.731445,0.267944,0.672119,0,0,0
105,18.244275,2.030534,-5.648855,-0.682861,0.228149,0.609497,0,0,0
108,15.908397,4.274809,-10.458015,-0.727295,0.301514,0.664429,0,0,0
111,11.160305,3.587786,-11.099237,-0.719604,0.2854,0.658569,0,0,0
114,2.21374,3.908397,-12.351145,-0.734985,0.26001,0.667725,0,0,0
117,-1.053435,3.984733,-15.145038,-0.734131,0.198486,0.649902,0,0,0
120,4.412214,3.572519,-10.656489,-0.702881,0.167114,0.64856,0,0,0
123,2.687023,4.732824,-14.778626,-0.726929,0.164307,0.668701,0,0,0
126,1.51145,4.076336,-16.824427,-0.737061,0.138916,0.668091,0,0,0
129,6.320611,4.610687,-10.137405,-0.722046,0.160645,0.682251,0,0,0
132,9.083969,4.030534,-11.908397,-0.722534,0.141479,0.651245,0,0,0
135,9.068702,4.519084,-11.480916,-0.744385,0.2229,0.670288,0,0,0
138,8.473282,3.770992,-9.114504,-0.702271,0.148315,0.676147,0,0,0
141,7.236641,5.083969,-12.778626,-0.729736,0.190308,0.667847,0,0,0
144,7.419847,4.381679,-11.572519,-0.730713,0.150024,0.664307,0,0,0
147,7.954198,3.923664,-12.961832,-0.734131,0.127197,0.650146,0,0,0
150,5.770992,3.251908,-11.480916,-0.704468,0.149048,0.662476,0,0,0
153,4.778626,4.961832,-15.679389,-0.749878,0.178833,0.6875,0,0,0
156,7.603053,4,-11.755725,-0.70105,0.142212,0.66626,0,0,0
159,4.916031,4.931298,-17.755725,-0.761108,0.13855,0.658936,0,0,0
162,9.618321,3.083969,-11.038168,-0.741943,0.149414,0.660767,0,0,0
165,14.351145,4.656489,-9.221374,-0.717285,0.176758,0.656982,0,0,0
168,13.557252,4.167939,-10.610687,-0.729736,0.195312,0.646484,0,0,0
171,9.709924,3.770992,-11.801527,-0.734009,0.178589,0.649292,0,0,0
174,8.656489,4.351145,-12.351145,-0.746094,0.209473,0.651733,0,0,0
177,8.732824,4.198473,-10.503817,-0.713745,0.179077,0.639404,0,0,0
180,7.51145,4,-13.954198,-0.743042,0.123901,0.668945,0,0,0
183,3.51145,4.244275,-15.541985,-0.752319,0.164307,0.665527,0,0,0
186,10.519084,4.458015,-10.045802,-0.722778,0.156494,0.648926,0,0,0
189,11.618321,3.816794,-12.580153,-0.735718,0.13855,0.646729,0,0,0
192,12.656489,5.267176,-11.175573,-0.750244,0.260498,0.662842,0,0,0
195,16.656489,3.877863,-2.473282,-0.704956,0.226562,0.632446,0,0,0
198,12.534351,4.274809,-10.167939,-0.721558,0.200562,0.634644,0,0,0
201,7.480916,4,-12.458015,-0.725952,0.177979,0.693115,0,0,0
204,-4.076336,4.519084,-22.610687,-0.773071,0.126465,0.656982,0,0,0
207,1.923664,3.114504,-12.580153,-0.713501,0.098267,0.663208,0,0,0
210,4.656489,4.916031,-12.687023,-0.720947,0.140381,0.652832,0,0,0
213,12.305344,3.725191,-11.633588,-0.73291,0.137817,0.662964,0,0,0
216,13.145038,4.931298,-12.671756,-0.741699,0.206177,0.689575,0,0,0
219,15.465649,3.358779,-8.442748,-0.724365,0.211304,0.632324,0,0,0
222,12.381679,4.290076,-8.10687,-0.724731,0.279663,0.649658,0,0,0
225,7.022901,3.984733,-11.541985,-0.729858,0.184814,0.64624,0,0,0
228,5.938931,4.885496,-11.312977,-0.731201,0.229126,0.66333,0,0,0
231,5.29771,4.412214,-13.236641,-0.716919,0.164307,0.631592,0,0,0
234,2.335878,4.030534,-16.564885,-0.743652,0.122559,0.661133,0,0,0
237,3.145038,5.114504,-14.732824,-0.746826,0.181885,0.676514,0,0,0
240,8.137405,4.931298,-9.19084,-0.717896,0.187744,0.623657,0,0,0
243,8.961832,5.083969,-10.839695,-0.711182,0.160645,0.653809,0,0,0
246,6.152672,4.992366,-15.374046,-0.740356,0.16748,0.671753,0,0,0
249,2.885496,5.053435,-12.534351,-0.730835,0.190918,0.670654,0,0,0
252,5.526718,4.992366,-9.89313,-0.711548,0.177734,0.658203,0,0,0
255,10.076336,5.923664,-7.435115,-0.717773,0.231934,0.684448,0,0,0
2,11.419847,4.778626,-10.793893,-0.719849,0.182861,0.645996,0,0,0
5,7.725191,3.572519,-14.229008,-0.727539,0.151123,0.655762,0,0,0
8,2.045802,5.694656,-16.458015,-0.737305,0.231079,0.668579,0,0,0
11,1.725191,5.526718,-9.083969,-0.722412,0.213867,0.642822,0,0,0
14,4.503817,5.328244,-11.526718,-0.738159,0.151489,0.651855,0,0,0
17,10.167939,5.40458,-7.770992,-0.7323,0.197632,0.672607,0,0,0
20,8.21374,4,-13.251908,-0.737671,0.123413,0.647339,0,0,0
23,6.10687,4.137405,-14.59542,-0.738159,0.12915,0.662598,0,0,0
26,8.259542,5.343511,-7.007634,-0.703979,0.185303,0.663696,0,0,0
29,4.824427,4.793893,-13.633588,-0.752197,0.160522,0.630371,0,0,0
32,9.099237,4.534351,-8.580153,-0.734131,0.197144,0.658569,0,0,0
35,7.51145,4.137405,-9.89313,-0.726196,0.154541,0.648804,0,0,0
38,6.687023,5.557252,-12.091603,-0.748901,0.214722,0.664551,0,0,0
41,5.083969,3.78626,-12.21374,-0.71936,0.102173,0.637695,0,0,0
44,4.320611,3.954198,-14.59542,-0.762573,0.150146,0.675293,0,0,0
47,6.381679,3.145038,-11.725191,-0.718262,0.1073,0.650024,0,0,0
50,8.70229,4.519084,-10.320611,-0.730225,0.172119,0.664429,0,0,0
53,11.435115,3.801527,-10.167939,-0.742554,0.160034,0.633057,0,0,0
56,11.877863,3.755725,-10.10687,-0.741455,0.1875,0.654541,0,0,0
59,3.969466,3.450382,-16.076336,-0.761108,0.162964,0.634644,0,0,0
62,6.183206,3.007634,-12.030534,-0.741333,0.208984,0.642822,0,0,0
65,5.358779,2.229008,-11.755725,-0.735107,0.142212,0.622559,0,0,0
68,9.358779,3.251908,-10.931298,-0.75354,0.18042,0.661865,0,0,0
71,7.435115,2.396947,-12.839695,-0.732788,0.122192,0.637817,0,0,0
74,7.083969,2.687023,-13.984733,-0.755249,0.173584,0.65918,0,0,0
77,7.938931,2.442748,-12.198473,-0.734009,0.148926,0.640625,0,0,0
80,10.152672,3.038168,-9.236641,-0.732544,0.18457,0.648315,0,0,0
83,10.335878,3.755725,-10.396947,-0.743652,0.204102,0.642334,0,0,0
86,9.29771,2.763359,-10.778626,-0.729736,0.190186,0.639404,0,0,0
89,5.160305,3.862595,-14.015267,-0.761719,0.230469,0.663086,0,0,0
92,8.152672,2.610687,-8.030534,-0.709106,0.168701,0.632935,0,0,0
95,8.687023,4.030534,-9.557252,-0.732422,0.201416,0.660034,0,0,0
98,7.068702,4.305344,-13.358779,-0.759399,0.204712,0.661743,0,0,0
101,6.580153,3.236641,-11.328244,-0.737671,0.166504,0.648315,0,0,0
104,5.801527,3.40458,-11.19084,-0.735962,0.151001,0.649658,0,0,0
107,7.282443,3.954198,-10.290076,-0.738892,0.15918,0.641602,0,0,0
110,7.801527,4.152672,-9.29771,-0.733643,0.142822,0.653687,0,0,0
113,7.603053,4.473282,-11.083969,-0.745728,0.17749,0.659546,0,0,0
116,6.778626,4.854962,-9.679389,-0.755615,0.218506,0.64856,0,0,0
119,11.877863,4.335878,-4.641221,-0.724854,0.174805,0.635742,0,0,0
122,13.51145,4.671756,-8.519084,-0.716675,0.147705,0.641602,0,0,0
125,9.541985,5.664122,-10.152672,-0.752075,0.199463,0.667725,0,0,0
128,11.068702,5.679389,-5.221374,-0.733032,0.214355,0.644409,0,0,0
131,8.885496,6.045802,-7.694656,-0.729248,0.18689,0.628296,0,0,0
134,9.496183,6.10687,-6.870229,-0.726929,0.199219,0.644897,0,0,0
137,8.778626,6.580153,-6.870229,-0.727173,0.200684,0.636353,0,0,0
140,9.435115,6.396947,-10,-0.744263,0.15625,0.651855,0,0,0
143,8.900763,6.656489,-4.366412,-0.726562,0.200562,0.658325,0,0,0
146,6.610687,7.389313,-7.328244,-0.742798,0.191284,0.646362,0,0,0
149,11.496183,7.633588,-1.648855,-0.723633,0.206909,0.647583,0,0,0
152,10.442748,7.282443,-4.152672,-0.736938,0.165771,0.639404,0,0,0
155,7.083969,8.030534,-7.40458,-0.744263,0.192505,0.6521,0,0,0
158,2.625954,7.78626,-7.969466,-0.743408,0.157104,0.654175,0,0,0
161,2.381679,8.229008,-8.015267,-0.749146,0.126343,0.648438,0,0,0
164,9.419847,8.839695,-3.664122,-0.737915,0.172974,0.647095,0,0,0
167,13.389313,9.526718,-0.916031,-0.720093,0.176392,0.636475,0,0,0
170,10.824427,10.229008,-5.282443,-0.751099,0.177246,0.649414,0,0,0
173,9.740458,9.847328,-2.992366,-0.748657,0.174561,0.649658,0,0,0
176,7.129771,10.70229,-4.076336,-0.736694,0.163208,0.63562,0,0,0
179,6.900763,11.633588,-5.312977,-0.748901,0.152466,0.669189,0,0,0
182,8.824427,12.580153,-4.061069,-0.741699,0.155396,0.658569,0,0,0
185,12.122137,14.244275,-0.732824,-0.730225,0.216431,0.641846,0,0,0
188,11.053435,14.549618,-2.748092,-0.748779,0.192017,0.633301,0,0,0
191,8.656489,14.381679,-3.908397,-0.763672,0.197632,0.64209,0,0,0
194,6.091603,15.328244,-1.832061,-0.726074,0.193115,0.658569,0,0,0
197,2.473282,16.274809,-7.938931,-0.769287,0.144897,0.632202,0,0,0
200,3.496183,14.946565,-7.832061,-0.756104,0.12207,0.634399,0,0,0
203,4.21374,17.343511,-4.167939,-0.759888,0.190674,0.650391,0,0,0
206,11.78626,18.015267,1.374046,-0.734863,0.188599,0.628174,0,0,0
209,10.442748,18.305344,-2.10687,-0.739624,0.157349,0.623413,0,0,0
212,10.427481,18.839695,-4.030534,-0.765015,0.207153,0.649536,0,0,0
215,8.717557,18,-1.603053,-0.734619,0.205444,0.628296,0,0,0
218,6.412214,18.625954,-5.923664,-0.762817,0.182495,0.621582,0,0,0
221,3.145038,17.954198,-7.709924,-0.780151,0.163818,0.625366,0,0,0
224,6.534351,17.19084,-3.083969,-0.736938,0.127808,0.636719,0,0,0
227,6.351145,18.458015,-6.458015,-0.766846,0.146973,0.640747,0,0,0
230,8.931298,17.847328,-5.206107,-0.764282,0.165161,0.645508,0,0,0
233,10.656489,17.221374,-5.664122,-0.752441,0.140747,0.613159,0,0,0
236,12.015267,17.664122,-4.21374,-0.747314,0.187866,0.638794,0,0,0
239,11.480916,17.725191,-3.603053,-0.749146,0.16748,0.639526,0,0,0
242,9.648855,16.977099,-4.931298,-0.776978,0.2052,0.635498,0,0,0
245,7.007634,16.931298,-5.099237,-0.746826,0.176025,0.634033,0,0,0
248,5.374046,16.152672,-6.977099,-0.755249,0.131592,0.626465,0,0,0
251,7.099237,16.10687,-9.633588,-0.744629,0.117554,0.621582,0,0,0
254,8,17.007634,-7.465649,-0.753052,0.151123,0.651733,0,0,0
1,9.816794,17.038168,-6.824427,-0.754028,0.172485,0.64624,0,0,0
4,10.763359,16.091603,-6.977099,-0.743164,0.156738,0.626709,0,0,0
7,10.229008,15.938931,-6.916031,-0.774902,0.207397,0.633057,0,0,0
10,9.312977,14.305344,-6.045802,-0.735352,0.144897,0.615723,0,0,0
13,10.717557,16.061069,-8.885496,-0.763184,0.184814,0.640503,0,0,0
16,13.29771,15.648855,-3.984733,-0.732544,0.21228,0.640625,0,0,0
19,9.221374,14.625954,-9.694656,-0.768555,0.134033,0.620361,0,0,0
22,8,13.862595,-9.587786,-0.769043,0.175171,0.629883,0,0,0
25,7.435115,13.908397,-9.038168,-0.742188,0.134399,0.645996,0,0,0
28,7.541985,14.091603,-11.450382,-0.754883,0.129639,0.65979,0,0,0
31,10.152672,14.854962,-8.748092,-0.73645,0.162964,0.642456,0,0,0
34,13.236641,15.496183,-6.442748,-0.758423,0.217407,0.654419,0,0,0
37,13.51145,13.832061,-7.938931,-0.745117,0.147339,0.633545,0,0,0
40,13.633588,15.419847,-6.351145,-0.752197,0.230225,0.663086,0,0,0
43,10.992366,14.290076,-8.641221,-0.740601,0.159058,0.630249,0,0,0
46,9.267176,14.244275,-8.717557,-0.749146,0.17627,0.662476,0,0,0
49,8.458015,13.709924,-9.862595,-0.756104,0.144165,0.633301,0,0,0
52,9.89313,13.618321,-9.236641,-0.751709,0.157471,0.634521,0,0,0
55,9.267176,13.587786,-9.618321,-0.74585,0.143799,0.636963,0,0,0
58,12.442748,14.381679,-6.320611,-0.737793,0.188721,0.645996,0,0,0
61,13.694656,14.091603,-6.80916,-0.733765,0.162964,0.626587,0,0,0
64,12.427481,15.221374,-7.328244,-0.761475,0.223389,0.658447,0,0,0
67,13.007634,13.160305,-6.015267,-0.749878,0.16748,0.620361,0,0,0
70,11.954198,12.992366,-6.290076,-0.74231,0.167114,0.630981,0,0,0
73,10.061069,13.770992,-7.557252,-0.747559,0.163574,0.651367,0,0,0
76,6.992366,12.931298,-10.335878,-0.751343,0.140503,0.636719,0,0,0
79,10.366412,12.625954,-8.503817,-0.755127,0.14563,0.646729,0,0,0
82,10.534351,12.045802,-8.870229,-0.756226,0.140137,0.626831,0,0,0
85,13.587786,11.984733,-7.877863,-0.775879,0.173706,0.632935,0,0,0
88,13.725191,11.267176,-8.687023,-0.742676,0.125,0.618286,0,0,0
91,13.633588,11.908397,-8.473282,-0.76001,0.193359,0.638794,0,0,0
94,12,10.580153,-8.137405,-0.758179,0.179077,0.609375,0,0,0
97,11.221374,10.045802,-8.839695,-0.739136,0.130859,0.633789,0,0,0
100,13.099237,11.755725,-8.732824,-0.759766,0.203735,0.647217,0,0,0
103,14.48855,10.671756,-6.442748,-0.738403,0.165894,0.62561,0,0,0
106,13.038168,10.549618,-10.412214,-0.764648,0.187988,0.625,0,0,0
109,11.954198,9.862595,-9.465649,-0.745361,0.174316,0.631348,0,0,0
112,7.832061,9.740458,-12.916031,-0.756348,0.171997,0.619629,0,0,0
115,6.900763,9.236641,-13.29771,-0.767334,0.155396,0.635254,0,0,0
118,9.068702,9.053435,-10.152672,-0.765991,0.169434,0.639038,0,0,0
121,11.618321,7.679389,-10.10687,-0.756104,0.130859,0.61438,0,0,0
124,13.038168,8.015267,-9.221374,-0.764893,0.191772,0.628662,0,0,0
127,14.778626,6.931298,-9.862595,-0.755737,0.151733,0.616089,0,0,0
130,12.366412,7.022901,-11.114504,-0.76062,0.197021,0.619873,0,0,0
133,11.541985,6.21374,-9.557252,-0.764282,0.192017,0.623901,0,0,0
136,10.70229,4.732824,-11.78626,-0.762451,0.158447,0.608154,0,0,0
139,10.152672,5.358779,-11.160305,-0.753784,0.221191,0.621582,0,0,0
142,7.648855,3.068702,-14.70229,-0.754395,0.103394,0.618896,0,0,0
145,6.091603,3.374046,-14.977099,-0.766724,0.164795,0.648438,0,0,0
148,9.282443,2.244275,-12.259542,-0.743042,0.111572,0.62793,0,0,0
151,10.473282,2.564885,-11.862595,-0.773926,0.18103,0.638428,0,0,0
154,12.992366,1.801527,-11.603053,-0.765137,0.175293,0.622314,0,0,0
157,15.221374,1.099237,-9.954198,-0.758545,0.184814,0.624512,0,0,0
160,10.916031,0.48855,-14.320611,-0.769653,0.168945,0.607788,0,0,0
163,13.053435,0.778626,-8.778626,-0.74292,0.220947,0.612183,0,0,0
166,10.824427,0.732824,-9.603053,-0.745728,0.172363,0.611084,0,0,0
169,6.885496,0.549618,-14.473282,-0.776489,0.192749,0.621948,0,0,0
172,8.610687,-0.274809,-10.717557,-0.753662,0.191284,0.630005,0,0,0
175,7.374046,-0.030534,-12.244275,-0.760132,0.190063,0.609741,0,0,0
178,9.007634,0.061069,-11.480916,-0.76123,0.1875,0.611084,0,0,0
181,11.51145,0.793893,-7.618321,-0.767578,0.218994,0.61499,0,0,0
184,12.870229,0.290076,-6.854962,-0.762939,0.203979,0.599854,0,0,0
187,11.282443,0.045802,-8.274809,-0.770386,0.232666,0.610474,0,0,0
190,8.045802,-2.10687,-10.534351,-0.767822,0.150269,0.621704,0,0,0
193,7.633588,-1.160305,-10.030534,-0.748535,0.138916,0.643677,0,0,0
196,6.076336,-1.175573,-11.343511,-0.774902,0.164307,0.618896,0,0,0
199,8.229008,-1.129771,-9.419847,-0.768066,0.163696,0.609741,0,0,0
202,11.083969,-2.229008,-7.282443,-0.764893,0.14209,0.606567,0,0,0
205,12.458015,-2.10687,-7.51145,-0.767578,0.164673,0.622803,0,0,0
208,13.618321,-2.839695,-8.473282,-0.748413,0.151611,0.614136,0,0,0
211,6.885496,-3.938931,-14.732824,-0.783447,0.155762,0.608887,0,0,0
214,7.099237,-3.725191,-9.29771,-0.762085,0.180908,0.611572,0,0,0
217,10.458015,-3.572519,-7.007634,-0.758057,0.153564,0.621826,0,0,0
220,11.816794,-3.068702,-7.51145,-0.755249,0.196045,0.615601,0,0,0
223,14.045802,-3.19084,-6.442748,-0.779419,0.230469,0.605957,0,0,0
226,11.312977,-4.198473,-7.206107,-0.768799,0.212158,0.610474,0,0,0
229,9.251908,-5.053435,-11.541985,-0.770874,0.160034,0.609985,0,0,0
232,6.48855,-4.580153,-8.412214,-0.762573,0.170654,0.637817,0,0,0
235,7.541985,-3.954198,-6.839695,-0.7677,0.187012,0.605835,0,0,0
238,8.244275,-4.625954,-8.229008,-0.779907,0.170654,0.603149,0,0,0
241,9.038168,-5.145038,-8.687023,-0.781616,0.151245,0.60791,0,0,0
244,11.282443,-5.648855,-5.496183,-0.760376,0.151855,0.61792,0,0,0
247,9.251908,-5.435115,-9.419847,-0.785278,0.173096,0.599854,0,0,0
250,10.21374,-5.847328,-7.374046,-0.770264,0.150391,0.61792,0,0,0
253,10.442748,-5.038168,-8.061069,-0.766968,0.157104,0.60498,0,0,0
0,12.732824,-5.068702,-6.152672,-0.767212,0.172485,0.600952,0,0,0
3,11.160305,-5.740458,-7.984733,-0.776001,0.158325,0.603149,0,0,0
6,12.931298,-4.946565,-4.824427,-0.777832,0.21936,0.606689,0,0,0
9,11.78626,-5.007634,-4.900763,-0.768555,0.197998,0.603882,0,0,0
12,9.877863,-5.343511,-7.40458,-0.782715,0.182983,0.619385,0,0,0
15,6.59542,-5.343511,-11.435115,-0.782471,0.140259,0.615234,0,0,0
18,6.641221,-5.847328,-10.793893,-0.778931,0.104126,0.627808,0,0,0
21,8.122137,-5.29771,-10.122137,-0.780762,0.146118,0.605225,0,0,0
24,13.694656,-5.89313,-3.832061,-0.758179,0.135742,0.611084,0,0,0
27,12.854962,-5.648855,-10.748092,-0.784302,0.109497,0.629517,0,0,0
30,13.343511,-6.59542,-12,-0.792969,0.130615,0.622192,0,0,0
33,12.80916,-6.198473,-8.748092,-0.766968,0.158569,0.608398,0,0,0
36,14.549618,-5.725191,-5.038168,-0.748169,0.198364,0.601196,0,0,0
39,12.427481,-5.343511,-9.29771,-0.786987,0.23645,0.610474,0,0,0
42,9.603053,-7.282443,-12.412214,-0.769897,0.141968,0.599121,0,0,0
45,7.236641,-6.167939,-13.007634,-0.773438,0.198853,0.621094,0,0,0
48,7.526718,-6.625954,-10.763359,-0.764526,0.18811,0.600952,0,0,0
51,7.648855,-6.030534,-11.267176,-0.766602,0.175659,0.598022,0,0,0
54,8.748092,-5.938931,-12,-0.773682,0.177368,0.610596,0,0,0
57,7.725191,-6.656489,-12.412214,-0.778687,0.180542,0.607056,0,0,0
60,9.480916,-5.984733,-9.007634,-0.761597,0.209839,0.613037,0,0,0
63,8.091603,-6.748092,-10.885496,-0.759644,0.139771,0.607178,0,0,0
66,9.801527,-5.801527,-10.748092,-0.765015,0.174927,0.637695,0,0,0
69,10.671756,-5.847328,-10.427481,-0.775635,0.192505,0.610229,0,0,0
72,11.587786,-6.717557,-11.160305,-0.769653,0.151978,0.615479,0,0,0
75,10.610687,-6.351145,-11.29771,-0.765991,0.185181,0.618652,0,0,0
78,11.022901,-5.709924,-9.221374,-0.764038,0.187256,0.609009,0,0,0
81,9.328244,-6.152672,-11.29771,-0.763184,0.148804,0.61145,0,0,0
84,11.862595,-5.083969,-8.656489,-0.770386,0.236694,0.607544,0,0,0
87,10.442748,-5.29771,-7.40458,-0.76062,0.202271,0.599731,0,0,0
90,11.053435,-4.885496,-7.496183,-0.759277,0.203613,0.613281,0,0,0
93,9.022901,-4.824427,-10.48855,-0.771606,0.155029,0.62439,0,0,0
96,8.198473,-4.167939,-10.167939,-0.770142,0.189209,0.625122,0,0,0
99,9.389313,-4.351145,-9.923664,-0.757568,0.147461,0.605347,0,0,0
102,8.549618,-4.259542,-13.206107,-0.788086,0.158081,0.620972,0,0,0
105,11.954198,-4.519084,-7.862595,-0.741821,0.138916,0.628906,0,0,0
108,12.458015,-3.51145,-11.328244,-0.779541,0.16687,0.615479,0,0,0
111,13.908397,-4.900763,-9.328244,-0.765747,0.157593,0.619629,0,0,0
114,13.526718,-3.877863,-10.229008,-0.7677,0.190308,0.617676,0,0,0
117,10.687023,-4.427481,-9.679389,-0.755737,0.172119,0.601685,0,0,0
120,10.152672,-3.419847,-9.40458,-0.76709,0.197632,0.625244,0,0,0
123,9.099237,-4.274809,-10.580153,-0.763916,0.149048,0.608276,0,0,0
126,11.908397,-3.480916,-9.267176,-0.753418,0.17981,0.630249,0,0,0
129,12.854962,-3.328244,-10.091603,-0.767334,0.156128,0.623047,0,0,0
132,14.015267,-2.778626,-8.763359,-0.766357,0.196167,0.61731,0,0,0
135,12.641221,-3.312977,-9.725191,-0.759277,0.163452,0.60498,0,0,0
138,11.175573,-2.885496,-11.435115,-0.77356,0.179443,0.615845,0,0,0
141,12.137405,-2.625954,-7.007634,-0.748901,0.177979,0.621094,0,0,0
144,13.725191,-1.847328,-7.480916,-0.758057,0.180542,0.626465,0,0,0
147,12.854962,-2.641221,-9.832061,-0.765869,0.146362,0.620483,0,0,0
150,9.89313,-2.229008,-11.679389,-0.776978,0.151855,0.634155,0,0,0
153,11.358779,-2.167939,-8.717557,-0.749878,0.15918,0.624634,0,0,0
156,11.435115,-1.954198,-10.916031,-0.767944,0.13208,0.621216,0,0,0
159,12.229008,-1.755725,-9.129771,-0.755615,0.140503,0.63208,0,0,0
162,13.633588,-1.709924,-9.694656,-0.759155,0.13208,0.632324,0,0,0
165,12.061069,-1.618321,-11.083969,-0.773926,0.164062,0.626099,0,0,0
168,12.229008,-1.801527,-9.89313,-0.759033,0.132324,0.624756,0,0,0
171,13.725191,-1.328244,-9.236641,-0.764282,0.138184,0.635986,0,0,0
174,14.687023,-0.992366,-9.099237,-0.762817,0.145386,0.628784,0,0,0
177,14.854962,-1.541985,-10.442748,-0.77124,0.132324,0.622803,0,0,0
180,16.366412,-1.29771,-8.442748,-0.755371,0.161743,0.616821,0,0,0
183,16.656489,-0.274809,-9.358779,-0.762573,0.171997,0.629272,0,0,0
186,13.832061,-0.717557,-10.244275,-0.766724,0.15686,0.614624,0,0,0
189,12.259542,-1.587786,-11.603053,-0.749146,0.128052,0.621948,0,0,0
192,10.900763,0.351145,-11.480916,-0.764282,0.190186,0.650635,0,0,0
195,13.465649,-1.236641,-10.70229,-0.75,0.083862,0.625,0,0,0
198,15.114504,-0.763359,-11.816794,-0.755371,0.124878,0.640381,0,0,0
201,15.160305,-1.740458,-12.961832,-0.761353,0.124634,0.627075,0,0,0
204,13.374046,-1.679389,-12.534351,-0.772827,0.202881,0.613281,0,0,0
207,13.954198,-2.10687,-10.717557,-0.743164,0.148682,0.613647,0,0,0
210,12.396947,-1.679389,-14.045802,-0.762085,0.150269,0.623779,0,0,0
213,12.015267,-1.923664,-14.671756,-0.771362,0.148315,0.625854,0,0,0
216,14.122137,-1.618321,-10.961832,-0.732788,0.150757,0.622925,0,0,0
219,11.541985,-0.977099,-14.381679,-0.780151,0.179443,0.630493,0,0,0
222,11.633588,-1.89313,-12.931298,-0.757935,0.164917,0.624268,0,0,0
225,13.847328,-1.236641,-11.450382,-0.743042,0.162354,0.630371,0,0,0
228,15.312977,-0.519084,-11.816794,-0.779785,0.208008,0.618408,0,0,0
231,12.977099,-2.21374,-13.496183,-0.755981,0.117554,0.613647,0,0,0
234,11.984733,-1.633588,-13.770992,-0.769653,0.159424,0.647705,0,0,0
237,10.610687,-1.679389,-14.80916,-0.751099,0.131104,0.624878,0,0,0
240,11.083969,-2.442748,-15.236641,-0.771973,0.101074,0.635132,0,0,0
243,11.541985,-2.198473,-15.160305,-0.768677,0.138916,0.621094,0,0,0
246,13.633588,-1.389313,-14.076336,-0.754517,0.132935,0.596924,0,0,0
249,13.648855,-1.954198,-13.755725,-0.758667,0.115112,0.630981,0,0,0
252,13.145038,-2.198473,-16.59542,-0.775635,0.119751,0.63562,0,0,0
255,13.480916,-2.641221,-13.083969,-0.765991,0.144897,0.625,0,0,0
2,15.496183,-1.969466,-12.320611,-0.754883,0.15625,0.622925,0,0,0
5,16.748092,-2.152672,-14.259542,-0.759644,0.141235,0.627197,0,0,0
8,10.977099,-2.610687,-18.610687,-0.774414,0.121338,0.63855,0,0,0
11,14.458015,-2.625954,-16.748092,-0.762451,0.109619,0.635986,0,0,0
14,12.503817,-2.10687,-17.480916,-0.758179,0.170776,0.61377,0,0,0
17,10.351145,-2.778626,-16.748092,-0.75769,0.123901,0.631958,0,0,0
20,14.030534,-2.015267,-14.351145,-0.747192,0.146484,0.644043,0,0,0
23,13.465649,-3.709924,-19.618321,-0.773438,0.059204,0.636108,0,0,0
26,11.541985,-4.748092,-23.19084,-0.770386,0.070801,0.655151,0,0,0
29,10.671756,-3.114504,-20.946565,-0.781494,0.14563,0.648438,0,0,0
32,17.969466,-4.290076,-11.541985,-0.72937,0.086304,0.614502,0,0,0
35,18.641221,-2.931298,-17.29771,-0.765137,0.143188,0.633789,0,0,0
38,18.900763,-4.534351,-17.389313,-0.757568,0.130249,0.619873,0,0,0
41,14.473282,-4.473282,-23.068702,-0.780518,0.124023,0.630737,0,0,0
44,12.778626,-4.305344,-20.824427,-0.76001,0.138672,0.626343,0,0,0
47,10.717557,-3.099237,-19.923664,-0.757812,0.131592,0.637329,0,0,0
50,13.877863,-3.603053,-19.664122,-0.757324,0.067261,0.631104,0,0,0
53,17.557252,-2.580153,-19.465649,-0.781372,0.150513,0.64209,0,0,0
56,17.465649,-5.114504,-20.473282,-0.750244,0.060669,0.610229,0,0,0
59,11.847328,-3.267176,-26.48855,-0.793701,0.16626,0.648193,0,0,0
62,16.748092,-3.603053,-17.053435,-0.741821,0.124512,0.612183,0,0,0
65,21.282443,-2.335878,-16.061069,-0.763428,0.174438,0.623047,0,0,0
68,23.282443,-3.251908,-17.740458,-0.754761,0.132446,0.620239,0,0,0
71,15.51145,-3.419847,-24.396947,-0.781372,0.149902,0.639038,0,0,0
74,13.557252,-3.19084,-21.251908,-0.750244,0.136597,0.639648,0,0,0
77,9.083969,-3.068702,-27.969466,-0.78479,0.098022,0.624634,0,0,0
80,15.114504,-2.641221,-19.618321,-0.765381,0.117554,0.621704,0,0,0
83,23.145038,-1.557252,-16.580153,-0.747437,0.147827,0.627441,0,0,0
86,22.839695,-2.091603,-22.763359,-0.790771,0.17981,0.607422,0,0,0
89,23.221374,-2.091603,-16.076336,-0.752686,0.234863,0.612549,0,0,0
92,15.877863,-1.862595,-19.969466,-0.764648,0.200562,0.615479,0,0,0
95,18.396947,-0.900763,-18.198473,-0.758667,0.185059,0.637695,0,0,0
98,13.633588,-1.862595,-21.877863,-0.753296,0.132812,0.616943,0,0,0
101,13.236641,-1.496183,-23.89313,-0.779907,0.126221,0.637817,0,0,0
104,14.427481,-2.015267,-23.587786,-0.753418,0.078247,0.637939,0,0,0
107,13.877863,-1.557252,-23.725191,-0.779663,0.118896,0.640869,0,0,0
110,20.870229,-1.78626,-19.068702,-0.75293,0.116455,0.635132,0,0,0
113,13.038168,-2.503817,-28.656489,-0.782715,0.064819,0.640747,0,0,0
116,14.122137,-2.992366,-25.022901,-0.780273,0.105591,0.641357,0,0,0
119,17.541985,-3.038168,-22.59542,-0.746094,0.069336,0.620483,0,0,0
122,21.068702,-2.045802,-21.572519,-0.774536,0.125977,0.639038,0,0,0
125,20.763359,-2.916031,-24.396947,-0.762573,0.09375,0.618652,0,0,0
128,23.648855,-2.015267,-19.557252,-0.774902,0.205811,0.63147,0,0,0
131,21.816794,-3.740458,-22.320611,-0.757446,0.105957,0.606812,0,0,0
134,15.038168,-2.793893,-28.519084,-0.786011,0.172363,0.646362,0,0,0
137,10.885496,-4.167939,-29.068702,-0.765381,0.07666,0.615845,0,0,0
140,13.145038,-4.748092,-28.641221,-0.746094,-0.002686,0.644897,0,0,0
143,14.687023,-2.534351,-30.335878,-0.797852,0.122681,0.659058,0,0,0
146,26.519084,-3.847328,-17.633588,-0.759033,0.15918,0.598633,0,0,0
149,25.740458,-4.870229,-22.503817,-0.778931,0.15271,0.589233,0,0,0
152,18.259542,-6.061069,-30.091603,-0.797241,0.130859,0.630371,0,0,0
155,19.78626,-5.465649,-24.229008,-0.756714,0.148804,0.644165,0,0,0
158,21.725191,-3.526718,-21.358779,-0.757568,0.219727,0.601318,0,0,0
161,20.580153,-5.984733,-26.381679,-0.766968,0.104614,0.581299,0,0,0
164,20.183206,-5.29771,-26.70229,-0.771729,0.146118,0.638794,0,0,0
167,16.656489,-5.847328,-28.793893,-0.763184,0.098511,0.617798,0,0,0
170,16.900763,-3.603053,-27.908397,-0.775757,0.200195,0.626221,0,0,0
173,19.938931,-3.206107,-19.022901,-0.763428,0.232666,0.588013,0,0,0
176,24.244275,-3.862595,-18.442748,-0.740356,0.141235,0.619141,0,0,0
179,16.503817,-2.534351,-29.526718,-0.819824,0.258545,0.632202,0,0,0
182,19.51145,-3.221374,-18.717557,-0.75415,0.25293,0.584717,0,0,0
185,17.755725,-1.709924,-20.061069,-0.764282,0.241821,0.603271,0,0,0
188,12.183206,-2.473282,-22.427481,-0.766235,0.196533,0.621094,0,0,0
191,9.679389,-5.175573,-29.160305,-0.753052,0.03125,0.653809,0,0,0
194,6.335878,-3.801527,-34.412214,-0.794067,0.081665,0.647095,0,0,0
197,12.259542,-3.236641,-24.412214,-0.780273,0.190308,0.589233,0,0,0
200,15.984733,-4.503817,-20.778626,-0.754395,0.081299,0.594238,0,0,0
203,17.770992,-2.549618,-25.29771,-0.799194,0.207031,0.632812,0,0,0
206,21.038168,-4.259542,-17.984733,-0.755859,0.149902,0.609253,0,0,0
209,21.725191,-3.648855,-19.679389,-0.749756,0.206299,0.620361,0,0,0
212,22.351145,-1.679389,-15.435115,-0.759399,0.331665,0.618286,0,0,0
215,16.70229,-3.358779,-16.183206,-0.749268,0.24231,0.574585,0,0,0
218,15.450382,-3.236641,-20.793893,-0.761719,0.215698,0.622925,0,0,0
221,9.053435,-2.137405,-25.969466,-0.769531,0.192505,0.635742,0,0,0
224,5.725191,-2.763359,-22.671756,-0.76123,0.17334,0.62085,0,0,0
227,4.656489,-3.312977,-24.580153,-0.755249,0.082031,0.620239,0,0,0
230,8.305344,-2.793893,-22.015267,-0.769043,0.08667,0.646484,0,0,0
233,14.931298,-1.374046,-18.396947,-0.769409,0.191895,0.635742,0,0,0
236,15.541985,-4.030534,-21.923664,-0.781738,0.090088,0.608154,0,0,0
239,18.030534,-2.732824,-15.984733,-0.783203,0.238525,0.626343,0,0,0
242,13.282443,-5.053435,-21.29771,-0.768921,0.085815,0.599854,0,0,0
245,12.274809,-3.419847,-21.770992,-0.785522,0.206543,0.620117,0,0,0
248,12.381679,-3.755725,-19.129771,-0.772705,0.189819,0.588501,0,0,0
251,16.122137,-4.091603,-18.381679,-0.775635,0.210815,0.580322,0,0,0
254,17.068702,-3.877863,-18.793893,-0.775513,0.248413,0.577881,0,0,0
1,12.473282,-5.923664,-20.839695,-0.760864,0.193115,0.591309,0,0,0
4,2.396947,-6.427481,-31.343511,-0.796387,0.15564,0.613037,0,0,0
7,3.022901,-4.870229,-23.709924,-0.767456,0.181885,0.621216,0,0,0
10,10.412214,-4.21374,-18.70229,-0.772461,0.194336,0.579468,0,0,0
13,17.618321,-3.603053,-14.534351,-0.763184,0.247803,0.588745,0,0,0
16,15.603053,-5.114504,-20.732824,-0.782837,0.211182,0.573608,0,0,0
19,12.839695,-4.763359,-18.59542,-0.795776,0.30542,0.595581,0,0,0
22,9.862595,-5.664122,-17.312977,-0.759888,0.254272,0.55896,0,0,0
25,8.503817,-4.335878,-17.740458,-0.770508,0.278198,0.587036,0,0,0
28,6.061069,-4.274809,-17.007634,-0.768433,0.269043,0.585205,0,0,0
31,7.435115,-3.89313,-16.137405,-0.768555,0.265381,0.588989,0,0,0
34,3.725191,-4.870229,-19.816794,-0.80481,0.289307,0.568848,0,0,0
37,5.374046,-4.824427,-14.748092,-0.762451,0.290039,0.576538,0,0,0
40,5.206107,-2.854962,-13.007634,-0.775024,0.329834,0.572388,0,0,0
43,4.580153,-3.740458,-13.129771,-0.768677,0.276733,0.556152,0,0,0
46,1.572519,-2.763359,-14.030534,-0.787842,0.336426,0.580933,0,0,0
49,0.167939,-3.648855,-13.984733,-0.768677,0.247192,0.573608,0,0,0
52,0.732824,-1.328244,-12.10687,-0.769287,0.290161,0.607178,0,0,0
55,3.51145,-1.694656,-8.198473,-0.766235,0.290039,0.575439,0,0,0
58,2.091603,-1.022901,-10.503817,-0.791748,0.341431,0.569214,0,0,0
61,3.419847,-1.206107,-4.885496,-0.757324,0.317383,0.574951,0,0,0
64,-1.633588,-0.717557,-11.236641,-0.787109,0.28125,0.587769,0,0,0
67,-3.603053,-1.145038,-8.80916,-0.763672,0.269775,0.588989,0,0,0
70,-5.954198,-0.519084,-9.068702,-0.774414,0.265259,0.584106,0,0,0
73,-3.664122,-0.59542,-7.251908,-0.766968,0.232788,0.592896,0,0,0
76,-2.854962,0.015267,-6.977099,-0.774414,0.272095,0.595825,0,0,0
79,-3.770992,-0.992366,-6.748092,-0.769287,0.220459,0.598022,0,0,0
82,-3.557252,-0.229008,-7.175573,-0.775146,0.249634,0.608887,0,0,0
85,-4.458015,-0.473282,-6.381679,-0.764404,0.233276,0.596558,0,0,0
88,-3.358779,-0.580153,-7.175573,-0.772461,0.210449,0.609741,0,0,0
91,-4.641221,-0.412214,-7.526718,-0.765869,0.225342,0.59668,0,0,0
94,-3.221374,-0.748092,-5.465649,-0.768188,0.249023,0.589722,0,0,0
97,-3.770992,-0.946565,-5.984733,-0.757812,0.222412,0.598511,0,0,0
100,-3.832061,-0.534351,-6.564885,-0.773926,0.272949,0.606201,0,0,0
103,-4.793893,-1.343511,-6.977099,-0.770142,0.24707,0.588745,0,0,0
106,-6.793893,-1.358779,-7.419847,-0.769897,0.259644,0.595337,0,0,0
109,-6.519084,-1.954198,-7.984733,-0.766724,0.223633,0.603882,0,0,0
112,-7.374046,-2,-8.641221,-0.7677,0.232422,0.605347,0,0,0
115,-7.251908,-2.412214,-8.671756,-0.765137,0.224976,0.601685,0,0,0
118,-8.351145,-2.671756,-10.396947,-0.777344,0.223633,0.605347,0,0,0
121,-7.755725,-2.977099,-9.572519,-0.766846,0.226807,0.605713,0,0,0
124,-8.396947,-3.038168,-10.076336,-0.760498,0.215332,0.609375,0,0,0
127,-8.732824,-3.129771,-11.435115,-0.769897,0.223633,0.61084,0,0,0
130,-8.732824,-3.664122,-11.083969,-0.764282,0.228638,0.60437,0,0,0
133,-9.801527,-4.076336,-12.610687,-0.766113,0.223755,0.6073,0,0,0
136,-10.351145,-4.59542,-13.954198,-0.762573,0.212402,0.61145,0,0,0
139,-10.70229,-4.961832,-14.351145,-0.764282,0.216431,0.612915,0,0,0
142,-11.664122,-5.114504,-14.885496,-0.764648,0.223999,0.60791,0,0,0
145,-11.51145,-5.40458,-14.992366,-0.76355,0.217896,0.607056,0,0,0
148,-11.572519,-5.633588,-15.755725,-0.762207,0.20459,0.609619,0,0,0
151,-12.076336,-5.78626,-16.900763,-0.768311,0.210938,0.612549,0,0,0
154,-12.59542,-6.198473,-17.374046,-0.761841,0.192871,0.614136,0,0,0
157,-12.793893,-6.229008,-18.427481,-0.768311,0.190918,0.611694,0,0,0
160,-13.251908,-6.412214,-18.656489,-0.765381,0.19458,0.612061,0,0,0
163,-13.709924,-6.381679,-19.007634,-0.766357,0.191772,0.612427,0,0,0
166,-13.679389,-6.732824,-19.770992,-0.765015,0.182739,0.610962,0,0,0
169,-14.229008,-6.946565,-20.992366,-0.77002,0.186157,0.614136,0,0,0
172,-14.961832,-7.129771,-21.664122,-0.77417,0.184937,0.614502,0,0,0
175,-15.709924,-7.618321,-22.427481,-0.766724,0.189331,0.612549,0,0,0
178,-16.335878,-7.832061,-23.038168,-0.766724,0.17981,0.613281,0,0,0
181,-16.900763,-7.969466,-24.045802,-0.768188,0.178467,0.614624,0,0,0
184,-17.374046,-8.366412,-25.007634,-0.769287,0.173706,0.616211,0,0,0
187,-18,-8.778626,-25.816794,-0.771851,0.166748,0.612793,0,0,0
190,-18.534351,-8.870229,-26.305344,-0.77002,0.163452,0.613892,0,0,0
193,-18.870229,-9.083969,-26.916031,-0.770508,0.155884,0.617554,0,0,0
196,-18.931298,-9.267176,-27.221374,-0.766479,0.14856,0.619507,0,0,0
199,-19.038168,-9.328244,-27.541985,-0.77002,0.144043,0.619629,0,0,0
202,-18.946565,-9.419847,-27.984733,-0.768066,0.145142,0.623657,0,0,0
205,-19.129771,-9.587786,-27.984733,-0.769531,0.136353,0.623535,0,0,0
208,-18.59542,-9.40458,-28.152672,-0.768677,0.133545,0.62439,0,0,0
211,-18.458015,-9.374046,-28.198473,-0.767944,0.130127,0.624878,0,0,0
214,-18.412214,-9.389313,-28.412214,-0.768921,0.128662,0.62439,0,0,0
217,-18.381679,-9.328244,-28.503817,-0.770508,0.124634,0.628418,0,0,0
220,-17.954198,-9.29771,-28.366412,-0.769043,0.119629,0.626709,0,0,0
223,-17.587786,-9.251908,-28.320611,-0.769897,0.112671,0.627808,0,0,0
226,-17.29771,-9.19084,-28.274809,-0.76416,0.110596,0.627686,0,0,0
229,-16.946565,-9.175573,-28.122137,-0.770752,0.1073,0.629272,0,0,0
232,-16.656489,-9.022901,-28.030534,-0.769165,0.111206,0.631104,0,0,0
235,-16.458015,-9.053435,-27.694656,-0.7677,0.11084,0.631836,0,0,0
238,-16.366412,-9.099237,-27.526718,-0.765259,0.112183,0.630371,0,0,0
241,-16.381679,-9.129771,-27.755725,-0.768066,0.119873,0.628296,0,0,0
244,-16.80916,-9.068702,-27.969466,-0.769653,0.123291,0.629883,0,0,0
247,-17.603053,-9.038168,-28.229008,-0.767578,0.121826,0.629761,0,0,0
250,-18.320611,-8.946565,-28.549618,-0.768188,0.11438,0.632568,0,0,0
253,-18.70229,-9.038168,-28.656489,-0.769165,0.110718,0.628662,0,0,0
0,-19.068702,-9.099237,-28.70229,-0.768799,0.10437,0.629517,0,0,0
3,-19.053435,-9.114504,-28.641221,-0.769043,0.099731,0.633057,0,0,0
6,-19.160305,-9.022901,-28.183206,-0.771362,0.097168,0.629272,0,0,0
9,-19.053435,-9.160305,-28,-0.767456,0.098511,0.634644,0,0,0
12,-19.267176,-9.282443,-27.541985,-0.770264,0.091797,0.634888,0,0,0
15,-19.236641,-9.267176,-27.129771,-0.768799,0.090942,0.635376,0,0,0
18,-18.916031,-9.236641,-26.625954,-0.767944,0.087891,0.63562,0,0,0
21,-18.70229,-9.114504,-26.152672,-0.76709,0.085815,0.637451,0,0,0
24,-18.48855,-9.038168,-25.694656,-0.766357,0.086548,0.635254,0,0,0
27,-18.580153,-8.961832,-25.099237,-0.769165,0.09082,0.636841,0,0,0
30,-18.763359,-8.916031,-24.763359,-0.769775,0.092896,0.636963,0,0,0
33,-18.946565,-8.900763,-24.396947,-0.765625,0.095215,0.639648,0,0,0
36,-19.450382,-8.748092,-24.183206,-0.768188,0.096924,0.633545,0,0,0
39,-19.969466,-8.687023,-23.755725,-0.771362,0.091553,0.634888,0,0,0
42,-20.091603,-8.549618,-23.450382,-0.766479,0.085083,0.636963,0,0,0
45,-20.198473,-8.381679,-22.992366,-0.769043,0.081177,0.640259,0,0,0
48,-20.21374,-7.954198,-22.48855,-0.765137,0.07959,0.638428,0,0,0
51,-20.48855,-7.847328,-22.137405,-0.767456,0.076538,0.636841,0,0,0
54,-20.473282,-7.496183,-21.145038,-0.765015,0.074463,0.637573,0,0,0
57,-20.427481,-7.206107,-20.625954,-0.767212,0.069702,0.639526,0,0,0
60,-20.061069,-6.824427,-19.923664,-0.764526,0.065918,0.636841,0,0,0
63,-20,-6.381679,-19.114504,-0.768188,0.067871,0.64209,0,0,0
66,-19.557252,-5.908397,-18.366412,-0.769043,0.065552,0.641235,0,0,0
69,-19.450382,-5.633588,-17.633588,-0.768677,0.064819,0.640747,0,0,0
72,-19.29771,-5.29771,-16.946565,-0.766968,0.06665,0.637695,0,0,0
75,-19.19084,-4.977099,-16.015267,-0.766724,0.068604,0.643799,0,0,0
78,-19.221374,-4.519084,-15.557252,-0.768066,0.066284,0.641357,0,0,0
81,-19.343511,-4.412214,-14.992366,-0.76709,0.067261,0.643921,0,0,0
84,-19.068702,-4.015267,-14.152672,-0.766602,0.062744,0.639771,0,0,0
87,-18.778626,-3.877863,-13.374046,-0.765259,0.058228,0.641357,0,0,0
90,-18.381679,-3.770992,-12.580153,-0.761841,0.055908,0.638306,0,0,0
93,-17.847328,-3.496183,-11.389313,-0.77002,0.049561,0.641357,0,0,0
96,-17.160305,-3.419847,-10.305344,-0.766968,0.050171,0.643066,0,0,0
99,-16.351145,-3.175573,-9.282443,-0.76709,0.050903,0.639648,0,0,0
102,-15.694656,-2.885496,-8.305344,-0.769409,0.053345,0.643555,0,0,0
105,-15.175573,-2.70229,-7.267176,-0.767944,0.055542,0.644409,0,0,0
108,-14.80916,-2.458015,-6.427481,-0.767212,0.056152,0.643311,0,0,0
111,-14.366412,-2.259542,-5.526718,-0.764771,0.057983,0.644653,0,0,0
114,-14.076336,-1.908397,-4.854962,-0.764648,0.060425,0.64624,0,0,0
117,-13.664122,-1.709924,-4.229008,-0.765137,0.061523,0.643799,0,0,0
120,-13.541985,-1.435115,-3.633588,-0.764282,0.063477,0.642822,0,0,0
123,-13.435115,-1.328244,-2.961832,-0.768555,0.064453,0.641479,0,0,0
126,-13.587786,-1.312977,-2.519084,-0.767456,0.06665,0.643555,0,0,0
129,-13.496183,-1.022901,-2.259542,-0.764526,0.068115,0.640381,0,0,0
132,-13.664122,-0.885496,-1.832061,-0.767822,0.073608,0.639648,0,0,0
135,-13.770992,-0.671756,-1.557252,-0.768433,0.069336,0.642334,0,0,0
138,-13.908397,-0.549618,-1.465649,-0.769775,0.073242,0.644653,0,0,0
141,-14.229008,-0.412214,-1.343511,-0.764282,0.074951,0.643066,0,0,0
144,-14.549618,-0.244275,-1.19084,-0.764038,0.07251,0.641357,0,0,0
147,-14.671756,-0.061069,-1.129771,-0.763062,0.075928,0.640381,0,0,0
150,-14.839695,-0.152672,-1.022901,-0.767822,0.074829,0.644653,0,0,0
153,-15.083969,0.152672,-0.854962,-0.759277,0.070312,0.644409,0,0,0
156,-15.267176,0.335878,-0.80916,-0.760742,0.077393,0.640747,0,0,0
159,-15.480916,0.244275,-1.129771,-0.763428,0.088623,0.643921,0,0,0
162,-16.229008,-0.152672,-1.282443,-0.76001,0.092163,0.635864,0,0,0
165,-16.916031,-0.366412,-1.725191,-0.759399,0.095825,0.634033,0,0,0
168,-17.770992,-0.671756,-2.290076,-0.762085,0.095947,0.633057,0,0,0
171,-18.656489,-0.931298,-2.931298,-0.768921,0.092651,0.631592,0,0,0
174,-19.29771,-1.19084,-3.633588,-0.763184,0.089233,0.634888,0,0,0
177,-19.908397,-1.312977,-4.045802,-0.77124,0.081299,0.63501,0,0,0
180,-20.030534,-1.496183,-4.580153,-0.763306,0.076416,0.637695,0,0,0
183,-20.244275,-1.572519,-4.824427,-0.760498,0.074219,0.634888,0,0,0
186,-20.183206,-1.496183,-4.885496,-0.763428,0.071411,0.636597,0,0,0
189,-20.061069,-1.389313,-5.068702,-0.761719,0.072021,0.640259,0,0,0
192,-20.076336,-1.206107,-5.221374,-0.758911,0.072632,0.644775,0,0,0
195,-20.122137,-1.206107,-5.618321,-0.76355,0.075562,0.638794,0,0,0
198,-20.198473,-1.267176,-5.587786,-0.76123,0.075439,0.643188,0,0,0
201,-20.442748,-1.129771,-6.10687,-0.758301,0.076294,0.643433,0,0,0
204,-20.70229,-1.068702,-6.259542,-0.760376,0.07666,0.641602,0,0,0
207,-20.580153,-0.732824,-6.610687,-0.763062,0.071167,0.644531,0,0,0
210,-20.656489,-0.900763,-7.038168,-0.762451,0.067261,0.639526,0,0,0
213,-20.366412,-1.114504,-6.748092,-0.764648,0.06311,0.641357,0,0,0
216,-19.603053,-1.358779,-6.870229,-0.766113,0.05542,0.63855,0,0,0
219,-19.022901,-1.40458,-6.839695,-0.765381,0.057007,0.638794,0,0,0
222,-18.503817,-1.664122,-6.80916,-0.766235,0.054443,0.638794,0,0,0
225,-17.679389,-1.816794,-6.992366,-0.768555,0.060059,0.639038,0,0,0
228,-17.496183,-2.305344,-7.312977,-0.773926,0.069458,0.641113,0,0,0
231,-17.526718,-2.793893,-7.862595,-0.778687,0.074951,0.642822,0,0,0
234,-18.137405,-3.312977,-8.549618,-0.78186,0.079102,0.64624,0,0,0
237,-18.763359,-3.725191,-9.40458,-0.779663,0.082153,0.647095,0,0,0
240,-19.312977,-4.290076,-9.938931,-0.777832,0.077148,0.645264,0,0,0
243,-19.908397,-4.473282,-10.763359,-0.775513,0.069092,0.643433,0,0,0
246,-19.89313,-4.70229,-11.603053,-0.774292,0.072021,0.647217,0,0,0
249,-20.198473,-4.824427,-12.015267,-0.769653,0.065918,0.64502,0,0,0
252,-20.320611,-5.038168,-12.335878,-0.774658,0.0625,0.646851,0,0,0
255,-20.167939,-5.099237,-12.900763,-0.772095,0.063843,0.647583,0,0,0
2,-20.305344,-5.343511,-13.175573,-0.770264,0.056885,0.646118,0,0,0
5,-20.198473,-5.450382,-13.435115,-0.772949,0.055054,0.648438,0,0,0
8,-20.259542,-5.541985,-13.587786,-0.770508,0.061279,0.648193,0,0,0
11,-20.137405,-5.541985,-14.045802,-0.77063,0.062866,0.64502,0,0,0
14,-20.305344,-5.603053,-14.458015,-0.765259,0.065308,0.645264,0,0,0
17,-20.671756,-5.541985,-14.946565,-0.764282,0.065063,0.644897,0,0,0
20,-21.053435,-5.389313,-15.374046,-0.764648,0.06543,0.643555,0,0,0
23,-21.618321,-5.29771,-16.061069,-0.762207,0.073364,0.643555,0,0,0
26,-22.10687,-5.312977,-16.641221,-0.759033,0.068237,0.642334,0,0,0
29,-22.717557,-5.160305,-17.160305,-0.760742,0.065308,0.643066,0,0,0
32,-22.961832,-5.099237,-17.480916,-0.762451,0.059204,0.644775,0,0,0
35,-23.343511,-5.022901,-17.832061,-0.759521,0.056641,0.647217,0,0,0
38,-23.694656,-4.870229,-18.167939,-0.764526,0.05542,0.647949,0,0,0
41,-24.030534,-4.687023,-18.167939,-0.762207,0.052612,0.649536,0,0,0
44,-24.030534,-4.351145,-18.259542,-0.759033,0.0448,0.647217,0,0,0
47,-23.832061,-4.152672,-18.229008,-0.755615,0.04248,0.644409,0,0,0
50,-23.709924,-3.648855,-18.167939,-0.75415,0.040161,0.649658,0,0,0
53,-23.145038,-3.221374,-18.229008,-0.755737,0.040649,0.646851,0,0,0
56,-22.885496,-3.251908,-17.770992,-0.751465,0.034058,0.640869,0,0,0
59,-22.320611,-2.80916,-17.954198,-0.749023,0.037964,0.638062,0,0,0
62,-21.969466,-2.687023,-17.709924,-0.746704,0.046509,0.641357,0,0,0
65,-22.076336,-2.442748,-17.89313,-0.74939,0.060913,0.639771,0,0,0
68,-23.022901,-2.48855,-18.045802,-0.752686,0.071411,0.643433,0,0,0
71,-24.091603,-2.534351,-18.656489,-0.748535,0.072876,0.638672,0,0,0
74,-25.78626,-2.015267,-19.465649,-0.75293,0.076294,0.63916,0,0,0
77,-27.465649,-2.183206,-19.847328,-0.756958,0.071045,0.642944,0,0,0
80,-28.748092,-2.198473,-20.229008,-0.760742,0.056396,0.645874,0,0,0
83,-29.862595,-2.091603,-20.427481,-0.758789,0.047607,0.639893,0,0,0
86,-30.396947,-1.51145,-20.671756,-0.755859,0.039673,0.645874,0,0,0
89,-30.717557,-1.465649,-20,-0.765625,0.02417,0.646851,0,0,0
92,-30.320611,-1.603053,-19.312977,-0.763062,0.011353,0.643311,0,0,0
95,-29.572519,-1.221374,-19.099237,-0.761597,0.010132,0.640503,0,0,0
98,-28.900763,-1.129771,-18.320611,-0.765869,0.009277,0.638062,0,0,0
101,-28.152672,-1.251908,-17.633588,-0.763306,0.008057,0.635986,0,0,0
104,-27.221374,-1.282443,-16.839695,-0.767456,0.007324,0.636475,0,0,0
107,-26.320611,-1.358779,-16.458015,-0.772339,0.01001,0.63855,0,0,0
110,-26.10687,-1.801527,-16.229008,-0.787476,0.019897,0.64502,0,0,0
