Packet number,Gyroscope X (deg/s),Gyroscope Y (deg/s),Gyroscope Z (deg/s),Accelerometer X (g),Accelerometer Y (g),Accelerometer Z (g),Magnetometer X (G),Magnetometer Y (G),Magnetometer Z (G)
50,-0.167939,4.030534,-0.610687,-0.638428,0.015869,0.762329,0,0,0
53,-0.335878,3.770992,-0.59542,-0.646118,0.010376,0.762695,0,0,0
56,-0.244275,3.664122,-0.59542,-0.641846,0.007935,0.761719,0,0,0
59,-0.137405,3.648855,-0.671756,-0.641968,0.007935,0.763916,0,0,0
62,-0.10687,3.450382,-0.473282,-0.64209,0.005127,0.76062,0,0,0
65,0.305344,3.419847,-0.412214,-0.641113,0.003906,0.760254,0,0,0
68,0.519084,3.206107,-0.305344,-0.643188,0.004272,0.761963,0,0,0
71,0.564885,3.083969,-0.198473,-0.640381,0.004395,0.763672,0,0,0
74,0.900763,2.916031,-0.152672,-0.642334,0.006592,0.759155,0,0,0
77,1.022901,2.854962,-0.137405,-0.641357,0.008667,0.760742,0,0,0
80,1.022901,2.732824,-0.152672,-0.643188,0.010986,0.759644,0,0,0
83,0.900763,2.320611,0,-0.640747,0.011963,0.759033,0,0,0
86,0.885496,2.381679,0,-0.638794,0.00769,0.758911,0,0,0
89,0.793893,2.122137,-0.030534,-0.641235,0.008789,0.756714,0,0,0
92,0.885496,2.10687,-0.076336,-0.6427,0.009399,0.759277,0,0,0
95,0.778626,1.725191,0.015267,-0.641113,0.011719,0.757202,0,0,0
98,0.70229,1.51145,-0.030534,-0.64563,0.013428,0.756348,0,0,0
101,0.671756,1.251908,-0.045802,-0.644043,0.008301,0.756104,0,0,0
104,0.854962,1.083969,0.061069,-0.644165,0.009277,0.761475,0,0,0
107,0.916031,0.824427,0.061069,-0.643677,0.005737,0.761597,0,0,0
110,1.129771,0.671756,0.244275,-0.641235,0.003052,0.758545,0,0,0
113,1.282443,0.351145,0.229008,-0.643188,0.005615,0.755127,0,0,0
116,1.343511,0,0.259542,-0.643677,0.007935,0.759033,0,0,0
119,1.389313,-0.259542,0.396947,-0.646729,0.005127,0.758789,0,0,0
122,1.587786,-0.503817,0.442748,-0.64978,0.007812,0.758423,0,0,0
125,1.740458,-0.732824,0.48855,-0.643677,0.006104,0.759888,0,0,0
128,1.694656,-1.129771,0.778626,-0.646484,0.007935,0.757202,0,0,0
131,1.954198,-1.435115,0.824427,-0.643066,0.007324,0.758545,0,0,0
134,2.122137,-1.679389,0.80916,-0.647461,0.004883,0.75769,0,0,0
137,2.167939,-1.847328,0.916031,-0.644043,0.005493,0.757568,0,0,0
140,2.458015,-2.167939,0.977099,-0.643311,0.00647,0.760132,0,0,0
143,2.656489,-2.290076,0.992366,-0.641968,0.010132,0.757568,0,0,0
146,2.442748,-2.580153,1.038168,-0.640869,0.012085,0.759033,0,0,0
149,2.458015,-2.687023,0.992366,-0.642456,0.01062,0.759155,0,0,0
152,2.351145,-2.80916,1.053435,-0.640381,0.009521,0.759155,0,0,0
155,2.396947,-2.931298,1.068702,-0.642578,0.011353,0.759766,0,0,0
158,2.641221,-3.099237,1.251908,-0.640625,0.00708,0.760132,0,0,0
161,2.793893,-3.099237,1.251908,-0.637451,0.005005,0.758301,0,0,0
164,3.038168,-3.129771,1.358779,-0.639648,0.008911,0.761719,0,0,0
167,2.854962,-3.145038,1.526718,-0.640747,0.013306,0.763062,0,0,0
170,3.129771,-3.251908,1.633588,-0.637695,0.009033,0.762695,0,0,0
173,3.206107,-3.221374,1.725191,-0.638062,0.006836,0.763916,0,0,0
176,3.251908,-3.358779,1.862595,-0.641479,0.008789,0.762695,0,0,0
179,3.587786,-3.496183,2.167939,-0.639282,0.011353,0.763794,0,0,0
182,3.374046,-3.419847,2.045802,-0.636597,0.016113,0.762695,0,0,0
185,3.099237,-3.389313,1.969466,-0.637939,0.020996,0.763184,0,0,0
188,2.870229,-3.221374,1.862595,-0.639526,0.016357,0.763306,0,0,0
191,2.687023,-3.282443,1.816794,-0.637817,0.01709,0.766479,0,0,0
194,2.473282,-3.374046,1.984733,-0.638672,0.010498,0.763428,0,0,0
197,2.793893,-3.374046,2.061069,-0.634155,0.011597,0.766357,0,0,0
200,2.671756,-3.236641,2.030534,-0.639648,0.015991,0.766724,0,0,0
203,2.564885,-3.251908,2.091603,-0.637085,0.014038,0.765381,0,0,0
206,2.473282,-3.19084,2.061069,-0.638672,0.013672,0.763672,0,0,0
209,2.351145,-3.251908,2.061069,-0.636475,0.01709,0.765991,0,0,0
212,2.259542,-3.129771,2.137405,-0.637451,0.01355,0.766113,0,0,0
215,2.137405,-3.083969,2.061069,-0.63623,0.015503,0.763672,0,0,0
218,2.10687,-3.114504,2.030534,-0.63623,0.014038,0.766235,0,0,0
221,2,-3.114504,1.877863,-0.63501,0.011841,0.763062,0,0,0
224,1.908397,-3.160305,1.984733,-0.636597,0.012207,0.761475,0,0,0
227,2.137405,-3.29771,1.78626,-0.637695,0.012695,0.765747,0,0,0
230,2.137405,-3.40458,1.938931,-0.639282,0.011963,0.765991,0,0,0
233,2.274809,-3.40458,1.89313,-0.640991,0.015381,0.768311,0,0,0
236,2.152672,-3.51145,1.923664,-0.638916,0.01416,0.765137,0,0,0
239,2.244275,-3.496183,1.877863,-0.640015,0.013916,0.764038,0,0,0
242,2.21374,-3.587786,1.847328,-0.640015,0.016113,0.766846,0,0,0
245,2.030534,-3.603053,1.618321,-0.642578,0.017944,0.764282,0,0,0
248,1.740458,-3.78626,1.664122,-0.635498,0.018921,0.764404,0,0,0
251,1.526718,-3.847328,1.618321,-0.639038,0.020874,0.764282,0,0,0
254,1.328244,-3.938931,1.358779,-0.641113,0.013672,0.765625,0,0,0
1,1.160305,-4.167939,1.221374,-0.641602,0.016357,0.761597,0,0,0
4,1.221374,-4.366412,1.145038,-0.640503,0.01416,0.761841,0,0,0
7,1.038168,-4.473282,1.19084,-0.64209,0.013672,0.76355,0,0,0
10,0.824427,-4.671756,1.129771,-0.642578,0.01355,0.761108,0,0,0
13,0.885496,-4.763359,0.931298,-0.640991,0.0177,0.766113,0,0,0
16,0.778626,-4.916031,0.839695,-0.639404,0.013916,0.762451,0,0,0
19,0.641221,-5.099237,0.931298,-0.638184,0.012939,0.766113,0,0,0
22,0.549618,-5.19084,0.870229,-0.63623,0.011841,0.765015,0,0,0
25,0.656489,-5.312977,0.900763,-0.641724,0.010498,0.76709,0,0,0
28,0.977099,-5.328244,0.870229,-0.637939,0.011841,0.765991,0,0,0
31,0.916031,-5.480916,0.961832,-0.637939,0.02063,0.766968,0,0,0
34,0.80916,-5.541985,0.717557,-0.637939,0.021484,0.764282,0,0,0
37,0.427481,-5.694656,0.763359,-0.637695,0.023071,0.766602,0,0,0
40,0.015267,-5.648855,0.48855,-0.638306,0.018677,0.766968,0,0,0
43,-0.274809,-5.847328,0.610687,-0.639282,0.015259,0.769531,0,0,0
46,-0.183206,-5.755725,0.564885,-0.637085,0.009521,0.771729,0,0,0
49,-0.198473,-5.816794,0.641221,-0.635864,0.012329,0.770874,0,0,0
52,0.122137,-5.694656,0.610687,-0.633789,0.012329,0.769043,0,0,0
55,0.305344,-5.618321,0.656489,-0.636475,0.015381,0.769775,0,0,0
58,0.244275,-5.572519,0.580153,-0.635498,0.016479,0.770508,0,0,0
61,0.045802,-5.465649,0.687023,-0.63501,0.014404,0.775024,0,0,0
64,0.030534,-5.40458,0.549618,-0.635986,0.013306,0.772583,0,0,0
67,0.076336,-5.267176,0.763359,-0.63501,0.008911,0.772705,0,0,0
70,0.305344,-5.312977,0.778626,-0.634155,0.011353,0.770386,0,0,0
73,0.458015,-5.145038,0.854962,-0.632446,0.013672,0.7677,0,0,0
76,0.335878,-5.175573,0.748092,-0.632446,0.015015,0.77417,0,0,0
79,0.381679,-5.129771,0.580153,-0.631958,0.014893,0.769897,0,0,0
82,0.335878,-5.068702,0.732824,-0.633179,0.013916,0.770752,0,0,0
85,0.473282,-5.007634,0.687023,-0.632568,0.013672,0.769531,0,0,0
88,0.442748,-4.931298,0.534351,-0.633911,0.011597,0.775146,0,0,0
91,0.442748,-4.854962,0.625954,-0.634766,0.013794,0.775269,0,0,0
94,0.458015,-4.641221,0.564885,-0.63269,0.018921,0.771729,0,0,0
97,0.229008,-4.458015,0.519084,-0.632446,0.018188,0.774292,0,0,0
100,0.351145,-4.305344,0.549618,-0.629883,0.012085,0.770996,0,0,0
103,0.503817,-4.259542,0.549618,-0.631958,0.011841,0.774902,0,0,0
106,0.519084,-4.061069,0.503817,-0.629395,0.011841,0.770996,0,0,0
109,0.458015,-3.78626,0.580153,-0.631226,0.014404,0.775879,0,0,0
112,0.534351,-3.541985,0.381679,-0.632935,0.01709,0.776489,0,0,0
115,0.412214,-3.40458,0.503817,-0.627075,0.016479,0.77478,0,0,0
118,0.274809,-3.29771,0.610687,-0.63208,0.012329,0.7771,0,0,0
121,0.396947,-3.099237,0.534351,-0.630371,0.010742,0.778564,0,0,0
124,0.59542,-2.900763,0.641221,-0.637085,0.009521,0.774292,0,0,0
127,0.687023,-2.839695,0.580153,-0.632446,0.011475,0.777954,0,0,0
130,0.854962,-2.656489,0.671756,-0.629883,0.010254,0.778809,0,0,0
133,1.038168,-2.519084,0.748092,-0.631592,0.011719,0.775513,0,0,0
136,1.175573,-2.473282,0.763359,-0.630371,0.010132,0.773193,0,0,0
139,1.40458,-2.244275,0.839695,-0.632446,0.009521,0.775879,0,0,0
142,1.29771,-2.274809,1.038168,-0.628662,0.014404,0.772461,0,0,0
145,1.526718,-2.091603,1.038168,-0.630981,0.015625,0.774536,0,0,0
148,1.709924,-2.183206,1.160305,-0.63269,0.009644,0.774048,0,0,0
151,1.679389,-2.015267,1.129771,-0.629761,0.011841,0.776733,0,0,0
154,1.984733,-1.984733,1.129771,-0.629395,0.016235,0.774414,0,0,0
157,1.725191,-1.954198,1.114504,-0.636719,0.015015,0.771973,0,0,0
160,1.603053,-1.938931,1.083969,-0.633423,0.013306,0.773926,0,0,0
163,1.740458,-1.847328,1.038168,-0.631226,0.014404,0.775269,0,0,0
166,1.603053,-1.923664,1.160305,-0.631592,0.013794,0.777344,0,0,0
169,2.076336,-1.89313,1.145038,-0.63208,0.014038,0.775391,0,0,0
172,1.954198,-1.89313,1.328244,-0.63208,0.009033,0.774658,0,0,0
175,1.938931,-1.908397,1.282443,-0.63147,0.011597,0.773438,0,0,0
178,2.167939,-1.923664,1.358779,-0.633423,0.013428,0.771606,0,0,0
181,2.259542,-1.954198,1.450382,-0.635498,0.013306,0.774902,0,0,0
184,2.183206,-1.938931,1.450382,-0.632446,0.016968,0.77063,0,0,0
187,2.259542,-1.89313,1.419847,-0.632935,0.019287,0.772339,0,0,0
190,2.045802,-1.938931,1.312977,-0.635254,0.021362,0.770386,0,0,0
193,1.89313,-2.015267,1.19084,-0.637207,0.01709,0.770264,0,0,0
196,1.984733,-2.244275,1.282443,-0.635742,0.014648,0.769653,0,0,0
199,1.938931,-2.259542,1.221374,-0.636475,0.016968,0.771484,0,0,0
202,1.923664,-2.427481,1.160305,-0.635742,0.015381,0.771606,0,0,0
205,1.862595,-2.717557,1.022901,-0.633057,0.016724,0.771729,0,0,0
208,1.740458,-2.778626,0.961832,-0.635864,0.019165,0.768066,0,0,0
211,1.725191,-2.961832,0.870229,-0.634888,0.019165,0.772461,0,0,0
214,1.526718,-3.114504,0.839695,-0.637329,0.018799,0.773193,0,0,0
217,1.480916,-3.343511,0.70229,-0.635498,0.022705,0.767944,0,0,0
220,1.221374,-3.587786,0.59542,-0.634888,0.019897,0.771362,0,0,0
223,1.038168,-3.725191,0.396947,-0.639038,0.017822,0.767944,0,0,0
226,1.129771,-3.832061,0.351145,-0.636475,0.020264,0.772461,0,0,0
229,0.870229,-4.076336,0.152672,-0.63623,0.021973,0.773926,0,0,0
232,0.80916,-4.137405,0,-0.633667,0.014282,0.771606,0,0,0
235,0.656489,-4.274809,-0.198473,-0.631348,0.021606,0.772217,0,0,0
238,0.366412,-4.305344,-0.198473,-0.634033,0.022949,0.770996,0,0,0
241,0.015267,-4.320611,-0.412214,-0.636597,0.025879,0.77417,0,0,0
244,-0.290076,-4.458015,-0.687023,-0.635498,0.025879,0.770386,0,0,0
247,-0.763359,-4.656489,-0.946565,-0.635498,0.021362,0.773804,0,0,0
250,-0.961832,-4.854962,-1.221374,-0.63623,0.0271,0.771118,0,0,0
253,-1.648855,-5.038168,-1.435115,-0.637451,0.028564,0.773193,0,0,0
0,-2.045802,-5.358779,-1.450382,-0.633057,0.021729,0.77002,0,0,0
3,-2.091603,-5.450382,-1.541985,-0.636841,0.018066,0.773682,0,0,0
6,-1.938931,-5.526718,-1.526718,-0.631104,0.012085,0.773193,0,0,0
9,-1.816794,-5.679389,-1.51145,-0.63623,0.016846,0.773438,0,0,0
12,-2,-5.664122,-1.450382,-0.631226,0.019409,0.773071,0,0,0
15,-1.954198,-5.694656,-1.465649,-0.633545,0.018188,0.77832,0,0,0
18,-2.229008,-5.755725,-1.541985,-0.630371,0.016724,0.773926,0,0,0
21,-2.335878,-5.740458,-1.557252,-0.635376,0.015259,0.77478,0,0,0
24,-2.274809,-5.89313,-1.40458,-0.631958,0.013672,0.773682,0,0,0
27,-2.10687,-5.923664,-1.40458,-0.630249,0.011597,0.775757,0,0,0
30,-2.091603,-5.618321,-1.19084,-0.629395,0.009766,0.779785,0,0,0
33,-1.832061,-6,-1.129771,-0.62915,0.012207,0.774902,0,0,0
36,-1.954198,-5.587786,-1.206107,-0.627319,0.011353,0.773926,0,0,0
39,-1.78626,-5.679389,-1.343511,-0.63147,0.012817,0.774414,0,0,0
42,-1.801527,-5.847328,-0.824427,-0.629028,0.006836,0.776611,0,0,0
45,-1.664122,-5.725191,-0.824427,-0.629517,0.008667,0.777466,0,0,0
48,-1.358779,-5.725191,-0.458015,-0.627441,0.006714,0.778442,0,0,0
51,-0.992366,-5.526718,-0.519084,-0.631226,0.009644,0.779907,0,0,0
54,-0.778626,-5.541985,-0.21374,-0.630493,0.007812,0.779419,0,0,0
57,-0.442748,-5.282443,-0.259542,-0.629517,0.010254,0.778076,0,0,0
60,-0.290076,-5.389313,0.091603,-0.62915,0.008179,0.78064,0,0,0
63,-0.152672,-5.282443,0.229008,-0.62561,0.007568,0.777344,0,0,0
66,0.183206,-5.343511,0.396947,-0.629028,0.008301,0.777466,0,0,0
69,0.152672,-5.160305,0.564885,-0.629395,0.011597,0.780029,0,0,0
72,0.473282,-5.007634,0.610687,-0.626099,0.011597,0.779663,0,0,0
75,0.59542,-4.885496,0.854962,-0.627563,0.005737,0.777344,0,0,0
78,0.992366,-4.900763,1.007634,-0.628662,0.005859,0.774048,0,0,0
81,1.206107,-4.946565,1.40458,-0.628784,0.002319,0.775879,0,0,0
84,1.603053,-4.778626,1.557252,-0.626099,0.004761,0.778931,0,0,0
87,1.954198,-4.70229,1.633588,-0.625366,0.010986,0.778687,0,0,0
90,2.290076,-4.534351,1.648855,-0.627563,0.010986,0.779907,0,0,0
93,2.274809,-4.549618,1.938931,-0.626465,0.011963,0.781128,0,0,0
96,2.335878,-4.564885,1.89313,-0.627441,0.012939,0.780396,0,0,0
99,2.366412,-4.519084,2.259542,-0.629395,0.012939,0.777466,0,0,0
102,2.564885,-4.473282,2.122137,-0.628052,0.01001,0.776245,0,0,0
105,2.717557,-4.351145,2.366412,-0.629028,0.012451,0.778076,0,0,0
108,2.931298,-4.396947,2.366412,-0.62854,0.011353,0.779175,0,0,0
111,2.931298,-4.381679,2.473282,-0.624756,0.01355,0.775757,0,0,0
114,3.114504,-4.183206,2.549618,-0.626831,0.012695,0.777954,0,0,0
117,3.236641,-4.152672,2.671756,-0.624023,0.017456,0.773926,0,0,0
120,3.267176,-4,2.656489,-0.623657,0.01416,0.778442,0,0,0
123,3.221374,-4,2.70229,-0.627686,0.017456,0.775024,0,0,0
126,3.236641,-3.862595,2.80916,-0.622559,0.017578,0.776001,0,0,0
129,3.19084,-3.648855,2.763359,-0.62561,0.015869,0.777588,0,0,0
132,3.206107,-3.587786,2.854962,-0.623657,0.015015,0.779419,0,0,0
135,3.343511,-3.496183,3.022901,-0.622925,0.017212,0.777588,0,0,0
138,3.389313,-3.267176,3.007634,-0.627563,0.010498,0.777466,0,0,0
141,3.679389,-3.145038,3.022901,-0.626221,0.011353,0.781738,0,0,0
144,3.557252,-3.099237,3.358779,-0.625122,0.015625,0.775757,0,0,0
147,3.770992,-2.916031,3.19084,-0.62561,0.014282,0.780396,0,0,0
150,3.587786,-2.641221,3.236641,-0.622559,0.019165,0.778076,0,0,0
153,3.465649,-2.59542,3.206107,-0.622192,0.021851,0.779297,0,0,0
156,3.145038,-2.473282,3.053435,-0.62561,0.028076,0.77832,0,0,0
159,2.473282,-2.412214,2.977099,-0.62561,0.026001,0.777954,0,0,0
162,2.274809,-2.229008,2.977099,-0.625854,0.020142,0.777954,0,0,0
165,2.229008,-2.244275,3.099237,-0.625854,0.019043,0.779541,0,0,0
168,2.320611,-2.045802,3.053435,-0.624756,0.014404,0.779541,0,0,0
171,2.427481,-2.045802,3.129771,-0.629883,0.015503,0.778931,0,0,0
174,2.473282,-1.862595,3.145038,-0.623413,0.016357,0.7771,0,0,0
177,2.351145,-1.725191,3.358779,-0.624634,0.018311,0.781494,0,0,0
180,2.412214,-1.572519,3.236641,-0.623535,0.015869,0.775513,0,0,0
183,2.458015,-1.450382,3.541985,-0.622437,0.016479,0.781006,0,0,0
186,2.625954,-1.312977,3.343511,-0.623169,0.015625,0.778564,0,0,0
189,2.534351,-1.236641,3.679389,-0.625366,0.016479,0.78186,0,0,0
192,2.580153,-0.946565,3.450382,-0.621704,0.019409,0.779419,0,0,0
195,2.503817,-0.870229,3.572519,-0.625366,0.016357,0.780396,0,0,0
198,2.778626,-0.656489,3.435115,-0.622681,0.018311,0.779297,0,0,0
201,2.671756,-0.564885,3.557252,-0.625977,0.018311,0.780151,0,0,0
204,2.748092,-0.442748,3.603053,-0.621582,0.015991,0.779541,0,0,0
207,2.900763,-0.320611,3.618321,-0.624146,0.018188,0.779541,0,0,0
210,2.961832,-0.137405,3.89313,-0.626343,0.01709,0.777832,0,0,0
213,2.824427,0,3.709924,-0.625732,0.022217,0.782349,0,0,0
216,2.717557,0.076336,3.755725,-0.623901,0.020874,0.778442,0,0,0
219,2.961832,0.137405,3.908397,-0.623901,0.01709,0.781494,0,0,0
222,3.083969,0.396947,3.633588,-0.621582,0.015991,0.780396,0,0,0
225,3.206107,0.458015,3.679389,-0.628296,0.018188,0.783203,0,0,0
228,3.358779,0.519084,3.832061,-0.62561,0.017578,0.779907,0,0,0
231,3.435115,0.412214,3.984733,-0.62439,0.018066,0.7771,0,0,0
234,3.603053,0.717557,4.137405,-0.626465,0.02002,0.780762,0,0,0
237,3.587786,0.839695,3.908397,-0.623047,0.021973,0.778564,0,0,0
240,3.740458,0.839695,4.21374,-0.627319,0.015015,0.777954,0,0,0
243,3.923664,1.068702,4.137405,-0.626831,0.020874,0.778076,0,0,0
246,3.862595,0.870229,4.473282,-0.626099,0.014282,0.777222,0,0,0
249,4.122137,1.160305,4.48855,-0.622925,0.019409,0.779053,0,0,0
252,4.274809,1.129771,4.503817,-0.627563,0.020996,0.779785,0,0,0
255,4.183206,1.160305,4.21374,-0.623413,0.023193,0.779419,0,0,0
2,3.954198,1.160305,4.335878,-0.624634,0.025879,0.777832,0,0,0
5,3.847328,1.221374,4.152672,-0.624756,0.026611,0.78125,0,0,0
8,3.862595,1.358779,3.938931,-0.623657,0.024902,0.778687,0,0,0
11,3.633588,1.51145,3.89313,-0.621704,0.023682,0.778809,0,0,0
14,3.603053,1.832061,3.709924,-0.621216,0.027344,0.780762,0,0,0
17,3.450382,1.954198,3.801527,-0.624878,0.026245,0.780151,0,0,0
20,3.282443,2.229008,3.648855,-0.62085,0.025146,0.783691,0,0,0
23,3.099237,2.473282,3.725191,-0.619141,0.02832,0.779541,0,0,0
26,3.114504,2.70229,3.587786,-0.62146,0.028198,0.781494,0,0,0
29,2.778626,2.931298,3.328244,-0.619995,0.029541,0.776489,0,0,0
32,2.610687,3.175573,3.083969,-0.625122,0.026733,0.780396,0,0,0
35,2.458015,3.312977,2.854962,-0.623901,0.028931,0.78064,0,0,0
38,2.183206,3.51145,2.656489,-0.623779,0.028076,0.779053,0,0,0
41,2.015267,3.526718,2.427481,-0.623779,0.026978,0.779297,0,0,0
44,1.862595,3.679389,2.183206,-0.622559,0.029663,0.775391,0,0,0
47,1.603053,3.832061,2.152672,-0.625244,0.030396,0.778564,0,0,0
50,1.374046,4.045802,1.877863,-0.62439,0.03064,0.779663,0,0,0
53,1.221374,3.984733,1.78626,-0.623291,0.035645,0.776978,0,0,0
56,0.564885,4.152672,1.465649,-0.625854,0.040161,0.773071,0,0,0
59,0.061069,4.10687,1.282443,-0.62561,0.0354,0.77002,0,0,0
62,-0.412214,4.015267,1.114504,-0.625854,0.026855,0.774658,0,0,0
65,-0.687023,4.061069,0.885496,-0.627686,0.027954,0.775757,0,0,0
68,-0.625954,3.877863,0.656489,-0.626465,0.026611,0.770386,0,0,0
71,-0.824427,3.938931,0.625954,-0.625854,0.031128,0.77417,0,0,0
74,-1.099237,3.832061,0.351145,-0.629517,0.028687,0.772949,0,0,0
77,-1.557252,3.78626,0.21374,-0.627319,0.028198,0.777954,0,0,0
80,-1.526718,3.801527,0.10687,-0.627197,0.026489,0.776733,0,0,0
83,-1.679389,3.664122,0.198473,-0.62915,0.02478,0.778809,0,0,0
86,-1.694656,3.755725,0.030534,-0.628296,0.023682,0.776245,0,0,0
89,-1.572519,3.755725,0.061069,-0.632324,0.023682,0.775879,0,0,0
92,-1.740458,3.832061,0.045802,-0.62854,0.02417,0.775391,0,0,0
95,-1.755725,3.954198,0.076336,-0.630249,0.022583,0.779175,0,0,0
98,-1.664122,3.984733,0.137405,-0.62793,0.022095,0.775269,0,0,0
101,-1.679389,4.076336,0,-0.629517,0.023315,0.777588,0,0,0
104,-1.679389,4.183206,-0.10687,-0.628296,0.025879,0.77417,0,0,0
107,-2,4.137405,-0.152672,-0.629517,0.025879,0.775146,0,0,0
110,-2.137405,4.21374,-0.122137,-0.629517,0.023071,0.776733,0,0,0
113,-2.091603,4.381679,-0.122137,-0.629639,0.017212,0.774902,0,0,0
116,-1.725191,4.320611,0.091603,-0.627563,0.013672,0.776245,0,0,0
119,-1.435115,4.045802,0.351145,-0.634033,0.017578,0.778442,0,0,0
122,-1.19084,3.832061,0.610687,-0.629639,0.019043,0.772705,0,0,0
125,-0.977099,4.061069,0.549618,-0.628418,0.019409,0.776489,0,0,0
128,-1.022901,4.305344,0.442748,-0.631836,0.023926,0.776245,0,0,0
131,-0.900763,4.10687,0.824427,-0.630615,0.015503,0.773682,0,0,0
134,-0.656489,4.152672,0.900763,-0.631958,0.014526,0.776978,0,0,0
137,-0.396947,4.244275,0.80916,-0.629883,0.017212,0.775879,0,0,0
140,-0.427481,4.381679,1.099237,-0.629639,0.017212,0.778076,0,0,0
143,-0.229008,4.290076,1.251908,-0.631714,0.01709,0.774902,0,0,0
146,0.061069,4.396947,1.435115,-0.631226,0.016113,0.777344,0,0,0
149,0.198473,4.442748,1.648855,-0.63269,0.0177,0.776123,0,0,0
152,0.473282,4.366412,1.770992,-0.630615,0.016846,0.773804,0,0,0
155,0.763359,4.503817,1.877863,-0.629028,0.016113,0.774048,0,0,0
158,0.992366,4.458015,2.045802,-0.633057,0.019897,0.772461,0,0,0
161,1.022901,4.48855,2.167939,-0.631592,0.020752,0.775146,0,0,0
164,1.007634,4.549618,2.290076,-0.629639,0.019897,0.776245,0,0,0
167,1.251908,4.564885,2.549618,-0.632446,0.018188,0.775879,0,0,0
170,1.572519,4.625954,2.580153,-0.629761,0.021729,0.775513,0,0,0
173,1.435115,4.48855,2.580153,-0.633057,0.023071,0.771606,0,0,0
176,1.389313,4.442748,2.70229,-0.632568,0.021362,0.772705,0,0,0
179,1.40458,4.183206,2.732824,-0.633911,0.018311,0.768555,0,0,0
182,1.51145,4.259542,2.732824,-0.633789,0.019043,0.770874,0,0,0
185,1.770992,4.152672,2.992366,-0.635864,0.015015,0.77124,0,0,0
188,2,4.015267,3.145038,-0.63501,0.015869,0.772461,0,0,0
191,2.351145,4,3.236641,-0.633057,0.017212,0.773926,0,0,0
194,2.732824,3.816794,3.175573,-0.63562,0.022827,0.775146,0,0,0
197,2.549618,3.709924,3.251908,-0.634155,0.025269,0.767334,0,0,0
200,2.259542,3.526718,3.022901,-0.634521,0.024902,0.773071,0,0,0
203,2.274809,3.389313,2.977099,-0.638062,0.022461,0.770142,0,0,0
206,2.244275,3.267176,2.824427,-0.635132,0.022095,0.768311,0,0,0
209,2.229008,3.175573,2.793893,-0.632446,0.022217,0.771362,0,0,0
212,2.21374,2.931298,2.732824,-0.639648,0.025024,0.769043,0,0,0
215,2.442748,2.870229,2.717557,-0.63623,0.02356,0.770508,0,0,0
218,2.381679,2.656489,2.625954,-0.634399,0.029785,0.77124,0,0,0
221,2.137405,2.610687,2.412214,-0.632812,0.032593,0.77124,0,0,0
224,1.679389,2.366412,2.21374,-0.63501,0.030396,0.77063,0,0,0
227,1.587786,2.305344,2.015267,-0.637939,0.026123,0.769775,0,0,0
230,1.435115,2.122137,1.89313,-0.635742,0.029175,0.772095,0,0,0
233,1.29771,1.984733,1.679389,-0.635376,0.028198,0.769043,0,0,0
236,1.374046,1.832061,1.648855,-0.634888,0.025879,0.77063,0,0,0
239,1.358779,1.664122,1.450382,-0.63562,0.026245,0.772705,0,0,0
242,1.236641,1.587786,1.358779,-0.63623,0.024048,0.771606,0,0,0
245,1.251908,1.358779,1.206107,-0.636963,0.025391,0.766968,0,0,0
248,1.206107,1.175573,1.312977,-0.633179,0.027832,0.768799,0,0,0
251,1.206107,1.129771,1.022901,-0.638672,0.025024,0.770508,0,0,0
254,1.19084,0.961832,0.992366,-0.635132,0.02478,0.768677,0,0,0
1,1.19084,0.824427,0.931298,-0.634277,0.026367,0.772461,0,0,0
4,1.022901,0.778626,0.778626,-0.633911,0.029297,0.769165,0,0,0
7,0.885496,0.610687,0.656489,-0.635742,0.029663,0.769043,0,0,0
10,0.534351,0.335878,0.503817,-0.635986,0.032959,0.769775,0,0,0
13,0.167939,0.259542,0.259542,-0.635742,0.032715,0.769409,0,0,0
16,-0.229008,0,0.183206,-0.636841,0.03125,0.768066,0,0,0
19,-0.122137,-0.045802,-0.167939,-0.636353,0.026001,0.772583,0,0,0
22,-0.167939,-0.259542,-0.167939,-0.636841,0.025391,0.769653,0,0,0
25,-0.122137,-0.366412,-0.167939,-0.633545,0.026001,0.769897,0,0,0
28,-0.244275,-0.503817,-0.229008,-0.634521,0.028076,0.772461,0,0,0
31,-0.335878,-0.610687,-0.122137,-0.635376,0.025879,0.768555,0,0,0
34,-0.229008,-0.59542,-0.335878,-0.635132,0.028687,0.771851,0,0,0
37,-0.366412,-0.717557,-0.427481,-0.633057,0.025879,0.769653,0,0,0
40,-0.519084,-0.793893,-0.458015,-0.634399,0.024658,0.77124,0,0,0
43,-0.366412,-0.763359,-0.48855,-0.637939,0.026123,0.774048,0,0,0
46,-0.412214,-0.946565,-0.503817,-0.635742,0.023193,0.768555,0,0,0
49,-0.625954,-1.038168,-0.458015,-0.636475,0.026733,0.767822,0,0,0
52,-0.412214,-1.038168,-0.717557,-0.636475,0.02478,0.769653,0,0,0
55,-0.763359,-1.114504,-0.793893,-0.63501,0.025879,0.770386,0,0,0
58,-0.70229,-1.251908,-0.763359,-0.632935,0.026611,0.77002,0,0,0
61,-0.885496,-1.374046,-0.900763,-0.634521,0.034302,0.766113,0,0,0
64,-1.29771,-1.419847,-1.114504,-0.636475,0.031494,0.770264,0,0,0
67,-1.694656,-1.648855,-1.236641,-0.63208,0.03064,0.766968,0,0,0
70,-1.89313,-1.801527,-1.40458,-0.636841,0.029785,0.769653,0,0,0
73,-2.015267,-1.908397,-1.603053,-0.63855,0.030029,0.768433,0,0,0
76,-2.259542,-2.152672,-1.709924,-0.636719,0.028198,0.768555,0,0,0
79,-2.335878,-2.366412,-1.740458,-0.634766,0.022461,0.768311,0,0,0
82,-2.458015,-2.396947,-1.725191,-0.63562,0.019165,0.77002,0,0,0
85,-2.122137,-2.519084,-1.709924,-0.635376,0.020142,0.77124,0,0,0
88,-2.091603,-2.732824,-1.526718,-0.63501,0.019409,0.770996,0,0,0
91,-1.923664,-2.763359,-1.496183,-0.635864,0.022705,0.770142,0,0,0
94,-1.908397,-2.931298,-1.328244,-0.635986,0.021118,0.769165,0,0,0
97,-1.755725,-2.992366,-1.496183,-0.637207,0.021851,0.770386,0,0,0
100,-1.572519,-3.114504,-1.480916,-0.63269,0.021118,0.769409,0,0,0
103,-1.603053,-3.343511,-1.328244,-0.634888,0.015625,0.770142,0,0,0
106,-1.40458,-3.419847,-1.267176,-0.633911,0.019409,0.772095,0,0,0
109,-1.282443,-3.557252,-1.312977,-0.63623,0.017212,0.770264,0,0,0
112,-1.099237,-3.664122,-1.19084,-0.633789,0.019287,0.769165,0,0,0
115,-0.839695,-3.740458,-1.221374,-0.63269,0.021851,0.768311,0,0,0
118,-0.80916,-3.709924,-1.19084,-0.63623,0.023071,0.770142,0,0,0
121,-0.839695,-3.877863,-1.083969,-0.634155,0.019165,0.769287,0,0,0
124,-0.763359,-4,-0.900763,-0.631348,0.018555,0.77124,0,0,0
127,-0.671756,-4.061069,-0.885496,-0.634399,0.02002,0.772949,0,0,0
130,-0.534351,-4.167939,-0.656489,-0.634399,0.0177,0.77356,0,0,0
133,-0.259542,-4.198473,-0.442748,-0.635742,0.015381,0.774536,0,0,0
136,0.030534,-4.274809,-0.305344,-0.636353,0.017334,0.77063,0,0,0
139,0.335878,-4.229008,-0.091603,-0.634644,0.016602,0.774658,0,0,0
142,0.641221,-4.305344,0.10687,-0.634155,0.018555,0.774902,0,0,0
145,1.083969,-4.290076,0.183206,-0.632202,0.016235,0.775513,0,0,0
148,1.19084,-4.320611,0.519084,-0.634766,0.018311,0.774902,0,0,0
151,1.328244,-4.290076,0.534351,-0.636353,0.017578,0.773315,0,0,0
154,1.709924,-4.183206,0.824427,-0.633423,0.016479,0.772461,0,0,0
157,2.030534,-4.183206,1.099237,-0.630371,0.014526,0.777588,0,0,0
160,2.412214,-4.152672,1.236641,-0.628296,0.014404,0.775269,0,0,0
163,2.671756,-4.091603,1.267176,-0.631958,0.016968,0.771362,0,0,0
166,2.931298,-4.045802,1.480916,-0.628784,0.017456,0.77417,0,0,0
169,3.068702,-3.770992,1.541985,-0.628296,0.020142,0.775635,0,0,0
172,3.236641,-3.801527,1.801527,-0.630249,0.019775,0.774902,0,0,0
175,3.282443,-3.603053,1.755725,-0.632324,0.022949,0.776123,0,0,0
178,3.541985,-3.51145,1.938931,-0.632324,0.022339,0.773193,0,0,0
181,3.618321,-3.374046,1.923664,-0.63147,0.023926,0.775146,0,0,0
184,3.419847,-3.282443,2.10687,-0.627808,0.024292,0.775024,0,0,0
187,3.480916,-3.175573,2.229008,-0.631348,0.023193,0.774902,0,0,0
190,3.725191,-3.083969,2.305344,-0.631836,0.022705,0.775146,0,0,0
193,3.908397,-2.961832,2.366412,-0.628784,0.022339,0.775024,0,0,0
196,3.954198,-2.977099,2.458015,-0.631836,0.028687,0.775757,0,0,0
199,3.679389,-2.931298,2.458015,-0.632812,0.03186,0.772217,0,0,0
202,3.267176,-3.038168,2.305344,-0.629517,0.027954,0.775391,0,0,0
205,3.251908,-2.977099,2.290076,-0.628784,0.023804,0.773682,0,0,0
208,3.114504,-2.916031,2.320611,-0.629883,0.02417,0.779175,0,0,0
211,3.419847,-2.778626,2.412214,-0.62854,0.021362,0.775757,0,0,0
214,3.328244,-2.748092,2.534351,-0.630371,0.021729,0.776855,0,0,0
217,3.145038,-2.70229,2.610687,-0.630371,0.025146,0.774902,0,0,0
220,3.343511,-2.70229,2.610687,-0.635254,0.026245,0.773438,0,0,0
223,3.19084,-2.59542,2.564885,-0.628174,0.028564,0.775757,0,0,0
226,2.885496,-2.549618,2.641221,-0.628784,0.026733,0.777466,0,0,0
229,2.824427,-2.519084,2.641221,-0.62915,0.028931,0.775513,0,0,0
232,2.625954,-2.549618,2.580153,-0.628174,0.028809,0.778931,0,0,0
235,2.427481,-2.412214,2.458015,-0.628784,0.032593,0.772217,0,0,0
238,1.954198,-2.48855,2.244275,-0.628662,0.039551,0.772827,0,0,0
241,1.358779,-2.671756,2,-0.630493,0.035156,0.774414,0,0,0
244,1.19084,-2.564885,1.801527,-0.629272,0.030762,0.773438,0,0,0
247,0.977099,-2.687023,1.633588,-0.630005,0.028564,0.776123,0,0,0
250,0.977099,-2.717557,1.587786,-0.62915,0.0271,0.775757,0,0,0
253,1.038168,-2.80916,1.618321,-0.630127,0.027588,0.773071,0,0,0
0,0.900763,-2.900763,1.450382,-0.629639,0.029541,0.773071,0,0,0
3,0.732824,-2.900763,1.419847,-0.63147,0.028931,0.775635,0,0,0
6,0.748092,-2.946565,1.374046,-0.628662,0.025635,0.775635,0,0,0
9,0.763359,-2.992366,1.358779,-0.631104,0.02356,0.772461,0,0,0
12,0.854962,-2.854962,1.374046,-0.630127,0.025269,0.775391,0,0,0
15,0.763359,-2.839695,1.29771,-0.627686,0.028076,0.77832,0,0,0
18,0.748092,-2.80916,1.236641,-0.630005,0.023926,0.775757,0,0,0
21,0.70229,-2.671756,1.160305,-0.626953,0.028198,0.774414,0,0,0
24,0.748092,-2.80916,1.206107,-0.624268,0.026367,0.774048,0,0,0
27,0.580153,-2.671756,1.099237,-0.628174,0.028809,0.776611,0,0,0
30,0.580153,-2.641221,1.083969,-0.628174,0.02832,0.776611,0,0,0
33,0.656489,-2.48855,1.068702,-0.629028,0.024658,0.777588,0,0,0
36,0.824427,-2.366412,1.160305,-0.627441,0.022339,0.774902,0,0,0
39,0.748092,-2.381679,1.236641,-0.626709,0.020508,0.777222,0,0,0
42,1.160305,-2.198473,1.419847,-0.62561,0.021729,0.776855,0,0,0
45,1.40458,-2.045802,1.328244,-0.62439,0.026611,0.779663,0,0,0
48,1.343511,-1.984733,1.541985,-0.626221,0.024414,0.775879,0,0,0
51,1.419847,-1.801527,1.679389,-0.627319,0.026611,0.77478,0,0,0
54,1.480916,-1.679389,1.78626,-0.624756,0.025024,0.779419,0,0,0
57,1.51145,-1.450382,1.908397,-0.628052,0.02417,0.774292,0,0,0
60,1.603053,-1.19084,1.954198,-0.625122,0.023315,0.780884,0,0,0
63,1.923664,-1.099237,1.984733,-0.623657,0.023193,0.779663,0,0,0
66,1.954198,-0.778626,2.21374,-0.622925,0.023682,0.77771,0,0,0
69,2.015267,-0.534351,2.244275,-0.621826,0.029175,0.776123,0,0,0
72,1.89313,-0.48855,2.21374,-0.631348,0.029053,0.775757,0,0,0
75,1.832061,-0.290076,2.21374,-0.628418,0.027832,0.777222,0,0,0
78,1.847328,-0.167939,2.259542,-0.630615,0.024292,0.777588,0,0,0
81,1.984733,0,2.351145,-0.626221,0.026855,0.774536,0,0,0
84,2.030534,0.10687,2.290076,-0.623535,0.023804,0.773804,0,0,0
87,2.122137,0.351145,2.351145,-0.625977,0.027344,0.777344,0,0,0
90,2.015267,0.396947,2.519084,-0.624146,0.028809,0.773804,0,0,0
93,2.198473,0.549618,2.427481,-0.626465,0.028564,0.779663,0,0,0
96,2.167939,0.763359,2.503817,-0.625732,0.031128,0.77771,0,0,0
99,2.10687,0.870229,2.351145,-0.624878,0.033569,0.773926,0,0,0
102,1.969466,0.900763,2.21374,-0.626709,0.031616,0.778198,0,0,0
105,1.984733,1.007634,2.198473,-0.625,0.032104,0.777222,0,0,0
108,1.89313,1.251908,2.167939,-0.625732,0.029419,0.776367,0,0,0
111,1.877863,1.374046,1.923664,-0.626343,0.029297,0.775879,0,0,0
114,1.862595,1.465649,1.862595,-0.628418,0.031128,0.773804,0,0,0
117,1.755725,1.496183,1.725191,-0.628662,0.036987,0.773193,0,0,0
120,1.29771,1.526718,1.587786,-0.633301,0.038818,0.776245,0,0,0
123,0.839695,1.648855,1.328244,-0.628784,0.03479,0.777832,0,0,0
126,0.732824,1.709924,1.282443,-0.629883,0.032471,0.772949,0,0,0
129,0.793893,1.78626,1.083969,-0.629639,0.030029,0.776489,0,0,0
132,0.70229,1.801527,1.099237,-0.626709,0.029175,0.775513,0,0,0
135,0.717557,1.862595,0.900763,-0.630493,0.030884,0.771729,0,0,0
138,0.70229,1.78626,0.839695,-0.631836,0.034912,0.771606,0,0,0
141,0.351145,1.832061,0.549618,-0.63208,0.031372,0.773682,0,0,0
144,0.229008,1.770992,0.503817,-0.630615,0.032715,0.776611,0,0,0
147,0.244275,1.664122,0.290076,-0.631104,0.033813,0.776123,0,0,0
150,0.198473,1.648855,0.21374,-0.633057,0.035278,0.771851,0,0,0
153,-0.030534,1.480916,0.030534,-0.630859,0.031494,0.772705,0,0,0
156,-0.137405,1.496183,-0.015267,-0.633423,0.031738,0.771973,0,0,0
159,-0.167939,1.328244,-0.122137,-0.633667,0.026367,0.773315,0,0,0
162,-0.091603,1.328244,-0.274809,-0.63208,0.028687,0.770264,0,0,0
165,-0.305344,1.221374,-0.21374,-0.632202,0.027222,0.771729,0,0,0
168,-0.183206,1.007634,-0.290076,-0.634521,0.02832,0.77478,0,0,0
171,-0.244275,0.854962,-0.320611,-0.634521,0.0271,0.772217,0,0,0
174,-0.259542,0.778626,-0.290076,-0.634766,0.030884,0.771362,0,0,0
177,-0.152672,0.503817,-0.396947,-0.63623,0.028809,0.774048,0,0,0
180,-0.259542,0.396947,-0.519084,-0.63562,0.030518,0.771606,0,0,0
183,-0.335878,0.21374,-0.610687,-0.63562,0.031006,0.77063,0,0,0
186,-0.534351,-0.015267,-0.748092,-0.632202,0.031372,0.770508,0,0,0
189,-0.870229,-0.320611,-0.671756,-0.639526,0.029297,0.770996,0,0,0
192,-0.748092,-0.442748,-0.885496,-0.634155,0.027344,0.772339,0,0,0
195,-0.625954,-0.59542,-0.717557,-0.635254,0.026855,0.773193,0,0,0
198,-0.656489,-0.870229,-0.671756,-0.634766,0.025146,0.773926,0,0,0
201,-0.396947,-0.961832,-0.625954,-0.633423,0.023804,0.773804,0,0,0
204,-0.503817,-1.114504,-0.59542,-0.631226,0.024536,0.774414,0,0,0
207,-0.320611,-1.358779,-0.580153,-0.634277,0.029541,0.766724,0,0,0
210,-0.442748,-1.541985,-0.625954,-0.63562,0.032227,0.770752,0,0,0
213,-0.610687,-1.740458,-0.687023,-0.637207,0.027466,0.773193,0,0,0
216,-0.549618,-2.137405,-0.580153,-0.634766,0.025269,0.771606,0,0,0
219,-0.305344,-2.335878,-0.625954,-0.632935,0.020508,0.77063,0,0,0
222,-0.076336,-2.534351,-0.442748,-0.631958,0.02356,0.77002,0,0,0
225,0.335878,-2.824427,-0.580153,-0.635132,0.021973,0.769653,0,0,0
228,0.244275,-3.099237,-0.366412,-0.634644,0.026733,0.77356,0,0,0
231,0.091603,-3.29771,-0.442748,-0.632568,0.030518,0.770386,0,0,0
234,0.167939,-3.633588,-0.503817,-0.63269,0.027222,0.771606,0,0,0
237,0,-3.755725,-0.381679,-0.633789,0.029541,0.771851,0,0,0
240,0.091603,-3.938931,-0.473282,-0.634033,0.026855,0.771118,0,0,0
243,0.091603,-4.10687,-0.335878,-0.630249,0.027344,0.77417,0,0,0
246,0.122137,-4.152672,-0.519084,-0.633057,0.030029,0.773071,0,0,0
249,0.061069,-4.412214,-0.48855,-0.631714,0.027588,0.770996,0,0,0
252,0.274809,-4.351145,-0.564885,-0.631104,0.032715,0.775513,0,0,0
255,0.167939,-4.534351,-0.564885,-0.630371,0.031006,0.774048,0,0,0
2,-0.061069,-4.48855,-0.732824,-0.627686,0.03125,0.770996,0,0,0
5,-0.122137,-4.564885,-0.610687,-0.626831,0.029541,0.773315,0,0,0
8,-0.122137,-4.48855,-0.717557,-0.629883,0.031128,0.772217,0,0,0
11,-0.167939,-4.610687,-0.610687,-0.628418,0.03064,0.776855,0,0,0
14,-0.122137,-4.580153,-0.59542,-0.631226,0.027222,0.773804,0,0,0
17,-0.030534,-4.656489,-0.732824,-0.63208,0.028198,0.772583,0,0,0
20,0,-4.687023,-0.687023,-0.631592,0.027832,0.772949,0,0,0
23,0.076336,-4.778626,-0.70229,-0.631104,0.030396,0.776978,0,0,0
26,0.152672,-4.717557,-0.610687,-0.631226,0.025635,0.775391,0,0,0
29,0.244275,-4.885496,-0.59542,-0.629028,0.026367,0.775513,0,0,0
32,0.335878,-4.885496,-0.564885,-0.631958,0.026367,0.773193,0,0,0
35,0.229008,-4.946565,-0.564885,-0.629761,0.0271,0.775391,0,0,0
38,0.244275,-5.129771,-0.59542,-0.63147,0.029053,0.770874,0,0,0
41,0.259542,-5.221374,-0.473282,-0.629517,0.028687,0.775391,0,0,0
44,0.137405,-5.19084,-0.412214,-0.627563,0.0271,0.775757,0,0,0
47,0.167939,-5.221374,-0.564885,-0.625,0.026733,0.776733,0,0,0
50,0.305344,-5.236641,-0.641221,-0.625732,0.029419,0.777344,0,0,0
53,0.183206,-5.312977,-0.534351,-0.629028,0.030884,0.774292,0,0,0
56,0.290076,-5.29771,-0.610687,-0.630981,0.029297,0.775269,0,0,0
59,0.091603,-5.312977,-0.625954,-0.623413,0.028198,0.77124,0,0,0
62,-0.015267,-5.343511,-0.610687,-0.628052,0.02771,0.777344,0,0,0
65,-0.10687,-5.389313,-0.656489,-0.625488,0.030762,0.772095,0,0,0
68,-0.045802,-5.374046,-0.59542,-0.626465,0.030029,0.779663,0,0,0
71,-0.229008,-5.450382,-0.473282,-0.626221,0.027954,0.780151,0,0,0
74,0.015267,-5.358779,-0.519084,-0.626953,0.025269,0.775146,0,0,0
77,0.122137,-5.450382,-0.442748,-0.626709,0.02417,0.779175,0,0,0
80,0.259542,-5.435115,-0.320611,-0.624634,0.031982,0.772705,0,0,0
83,0.167939,-5.541985,-0.442748,-0.626587,0.035034,0.775391,0,0,0
86,-0.625954,-5.78626,-0.48855,-0.627441,0.041504,0.773193,0,0,0
89,-1.068702,-5.78626,-0.641221,-0.628174,0.030762,0.777832,0,0,0
92,-1.236641,-5.770992,-0.748092,-0.627075,0.025024,0.778564,0,0,0
95,-1.114504,-5.679389,-0.732824,-0.623901,0.019653,0.77832,0,0,0
98,-0.732824,-5.572519,-0.320611,-0.625366,0.020386,0.776367,0,0,0
101,-0.473282,-5.679389,-0.259542,-0.626221,0.020874,0.779663,0,0,0
104,-0.229008,-5.694656,-0.244275,-0.626343,0.024536,0.778564,0,0,0
107,0,-5.603053,-0.10687,-0.624023,0.026367,0.778931,0,0,0
110,0.015267,-5.526718,0.198473,-0.626953,0.026489,0.778198,0,0,0
113,0.274809,-5.633588,0.152672,-0.626831,0.025635,0.779785,0,0,0
116,0.274809,-5.587786,0.152672,-0.622314,0.027588,0.776733,0,0,0
119,0.274809,-5.496183,0.229008,-0.623169,0.023682,0.776733,0,0,0
122,0.320611,-5.389313,0.244275,-0.623291,0.020752,0.779419,0,0,0
125,0.473282,-5.312977,0.335878,-0.627319,0.022095,0.779053,0,0,0
128,0.778626,-5.251908,0.351145,-0.623291,0.023804,0.778564,0,0,0
131,0.900763,-5.114504,0.59542,-0.625244,0.025879,0.780273,0,0,0
134,1.236641,-5.022901,0.427481,-0.622559,0.028076,0.784546,0,0,0
137,0.961832,-4.900763,0.564885,-0.622681,0.031738,0.781616,0,0,0
140,0.824427,-4.870229,0.534351,-0.620605,0.031738,0.784546,0,0,0
143,0.671756,-4.732824,0.473282,-0.624634,0.029907,0.780273,0,0,0
146,0.732824,-4.580153,0.503817,-0.621704,0.025146,0.783569,0,0,0
149,0.717557,-4.427481,0.458015,-0.621704,0.028809,0.781128,0,0,0
152,0.70229,-4.305344,0.473282,-0.623047,0.026855,0.779907,0,0,0
155,0.70229,-4.259542,0.381679,-0.620605,0.026733,0.781738,0,0,0
158,0.564885,-4,0.412214,-0.622192,0.029785,0.779663,0,0,0
161,0.534351,-3.770992,0.290076,-0.621582,0.029297,0.781494,0,0,0
164,0.427481,-3.78626,0.335878,-0.62085,0.029907,0.780273,0,0,0
167,0.458015,-3.51145,0.290076,-0.617676,0.033447,0.781128,0,0,0
170,0.152672,-3.450382,0.21374,-0.619995,0.030884,0.781616,0,0,0
173,0.030534,-3.282443,0.167939,-0.62146,0.030396,0.780396,0,0,0
176,-0.259542,-3.19084,0.091603,-0.622803,0.029541,0.78064,0,0,0
179,-0.183206,-3.007634,0.091603,-0.622559,0.028931,0.783325,0,0,0
182,-0.335878,-2.80916,0.076336,-0.623901,0.025391,0.783447,0,0,0
185,-0.061069,-2.824427,-0.10687,-0.622803,0.024414,0.779907,0,0,0
188,-0.122137,-2.656489,0,-0.620483,0.027344,0.780273,0,0,0
191,-0.030534,-2.625954,-0.091603,-0.621094,0.026855,0.78418,0,0,0
194,-0.183206,-2.427481,0,-0.620239,0.029053,0.782471,0,0,0
197,-0.122137,-2.21374,-0.10687,-0.62146,0.028442,0.782471,0,0,0
200,-0.137405,-2.045802,-0.061069,-0.621094,0.03064,0.781616,0,0,0
203,-0.229008,-1.89313,-0.045802,-0.620605,0.027466,0.783325,0,0,0
206,0,-1.633588,-0.21374,-0.62207,0.026611,0.779175,0,0,0
209,-0.183206,-1.557252,-0.152672,-0.621582,0.025757,0.779175,0,0,0
212,-0.061069,-1.374046,-0.244275,-0.62207,0.029663,0.781494,0,0,0
215,-0.259542,-1.206107,-0.137405,-0.617065,0.026489,0.783081,0,0,0
218,-0.076336,-1.022901,-0.335878,-0.627441,0.029175,0.785034,0,0,0
221,-0.091603,-0.80916,-0.167939,-0.620239,0.028442,0.783081,0,0,0
224,-0.061069,-0.625954,-0.366412,-0.621094,0.030273,0.78125,0,0,0
227,-0.229008,-0.564885,-0.442748,-0.622559,0.027222,0.782959,0,0,0
230,-0.442748,-0.458015,-0.381679,-0.620605,0.026978,0.780029,0,0,0
233,-0.534351,-0.320611,-0.412214,-0.620117,0.026367,0.782593,0,0,0
236,-0.503817,-0.259542,-0.351145,-0.61853,0.030396,0.780518,0,0,0
239,-0.503817,-0.137405,-0.351145,-0.623291,0.030396,0.782959,0,0,0
242,-0.412214,0.045802,-0.381679,-0.621216,0.027588,0.783447,0,0,0
245,-0.366412,-0.030534,-0.412214,-0.621826,0.030029,0.782349,0,0,0
248,-0.396947,0.183206,-0.427481,-0.622437,0.023804,0.782104,0,0,0
251,-0.519084,0.290076,-0.427481,-0.623535,0.024048,0.78186,0,0,0
254,-0.183206,0.412214,-0.442748,-0.624878,0.02832,0.779907,0,0,0
1,-0.229008,0.656489,-0.259542,-0.623779,0.024536,0.780762,0,0,0
4,-0.183206,0.763359,-0.320611,-0.625,0.02417,0.782959,0,0,0
7,0.091603,0.916031,-0.381679,-0.620605,0.024292,0.780762,0,0,0
10,0.183206,1.114504,-0.122137,-0.620361,0.022217,0.782349,0,0,0
13,0.10687,1.267176,-0.198473,-0.621216,0.023315,0.782837,0,0,0
16,0.244275,1.51145,-0.030534,-0.623535,0.025269,0.782837,0,0,0
19,0.442748,1.664122,0.015267,-0.621338,0.024414,0.781128,0,0,0
22,0.503817,1.847328,0.045802,-0.621826,0.026001,0.782227,0,0,0
25,0.641221,1.984733,0.122137,-0.619629,0.026489,0.783569,0,0,0
28,0.732824,2.122137,0.183206,-0.622681,0.025024,0.779541,0,0,0
31,0.916031,2.259542,0.305344,-0.621704,0.025757,0.781616,0,0,0
34,0.916031,2.305344,0.305344,-0.62146,0.027344,0.780518,0,0,0
37,0.977099,2.427481,0.229008,-0.620483,0.029785,0.779785,0,0,0
40,0.732824,2.503817,0.427481,-0.626587,0.024414,0.779785,0,0,0
43,0.717557,2.442748,0.320611,-0.624146,0.027954,0.780151,0,0,0
46,0.641221,2.580153,0.244275,-0.623291,0.029785,0.780518,0,0,0
49,0.59542,2.503817,0.21374,-0.624512,0.033203,0.77771,0,0,0
52,0.229008,2.610687,0.198473,-0.623657,0.03186,0.778076,0,0,0
55,0.152672,2.534351,0.167939,-0.626953,0.030518,0.779175,0,0,0
58,-0.167939,2.519084,0.167939,-0.626343,0.025879,0.779541,0,0,0
61,0.167939,2.549618,0.183206,-0.623779,0.023315,0.78064,0,0,0
64,0.396947,2.564885,0.259542,-0.624146,0.028809,0.780151,0,0,0
67,0.152672,2.671756,0.183206,-0.624023,0.033813,0.779785,0,0,0
70,-0.091603,2.717557,0.10687,-0.623291,0.034058,0.775513,0,0,0
73,-0.427481,2.748092,0.030534,-0.625977,0.032959,0.779053,0,0,0
76,-0.519084,2.625954,-0.091603,-0.62561,0.025757,0.779663,0,0,0
79,-0.290076,2.763359,-0.10687,-0.621948,0.024658,0.781982,0,0,0
82,-0.427481,2.763359,0.045802,-0.625122,0.02771,0.777588,0,0,0
85,-0.473282,2.824427,-0.076336,-0.621582,0.029175,0.778687,0,0,0
88,-0.290076,2.916031,0.030534,-0.623413,0.028442,0.778687,0,0,0
91,-0.549618,2.977099,-0.152672,-0.625244,0.036255,0.778442,0,0,0
94,-0.916031,3.068702,-0.198473,-0.627441,0.034302,0.776733,0,0,0
97,-1.374046,3.068702,-0.381679,-0.626587,0.032959,0.779053,0,0,0
100,-1.725191,2.946565,-0.351145,-0.623413,0.025635,0.777222,0,0,0
103,-1.603053,2.946565,-0.320611,-0.625244,0.028076,0.780396,0,0,0
106,-1.40458,3.068702,-0.244275,-0.624756,0.027588,0.779907,0,0,0
109,-1.679389,2.916031,-0.229008,-0.625488,0.026245,0.779541,0,0,0
112,-1.603053,3.068702,-0.305344,-0.622559,0.028687,0.776733,0,0,0
115,-1.557252,2.977099,-0.198473,-0.626099,0.029175,0.77771,0,0,0
118,-1.480916,3.007634,-0.290076,-0.625,0.02478,0.77771,0,0,0
121,-1.328244,3.053435,-0.274809,-0.628662,0.024902,0.775757,0,0,0
124,-1.267176,3.053435,-0.076336,-0.626221,0.026367,0.774048,0,0,0
127,-1.099237,3.022901,0.045802,-0.624878,0.022095,0.775635,0,0,0
130,-1.083969,3.007634,0.076336,-0.630005,0.024048,0.78064,0,0,0
133,-1.068702,3.099237,0.10687,-0.624023,0.024658,0.778076,0,0,0
136,-0.885496,3.007634,0.045802,-0.626709,0.024414,0.776123,0,0,0
139,-0.824427,2.900763,0.152672,-0.625,0.023682,0.78064,0,0,0
142,-0.778626,2.793893,0.076336,-0.626831,0.023315,0.773315,0,0,0
145,-0.564885,2.824427,0.167939,-0.627441,0.025635,0.775879,0,0,0
148,-0.503817,2.778626,0.229008,-0.627563,0.023315,0.774902,0,0,0
151,-0.580153,2.778626,0.244275,-0.629272,0.027832,0.776733,0,0,0
154,-0.48855,2.717557,0.198473,-0.627441,0.027588,0.774292,0,0,0
157,-0.503817,2.549618,0.167939,-0.629517,0.02771,0.777222,0,0,0
160,-0.259542,2.610687,0.091603,-0.630249,0.023438,0.778687,0,0,0
163,-0.122137,2.519084,0.274809,-0.630737,0.023804,0.775513,0,0,0
166,0.015267,2.351145,0.259542,-0.627441,0.025024,0.774902,0,0,0
169,-0.183206,2.290076,0.320611,-0.626831,0.027344,0.772827,0,0,0
172,0.10687,2.137405,0.229008,-0.628174,0.027954,0.776001,0,0,0
175,0.061069,2.015267,0.167939,-0.630981,0.026611,0.775024,0,0,0
178,0.061069,1.923664,0.259542,-0.634277,0.028442,0.774536,0,0,0
181,-0.015267,1.755725,0.229008,-0.631104,0.026733,0.771606,0,0,0
184,-0.015267,1.51145,0.152672,-0.632812,0.029907,0.769165,0,0,0
187,-0.137405,1.343511,0,-0.628052,0.032227,0.769775,0,0,0
190,-0.412214,1.083969,-0.015267,-0.631958,0.03064,0.77063,0,0,0
193,-0.549618,0.80916,-0.229008,-0.631836,0.02771,0.770386,0,0,0
196,-0.412214,0.625954,-0.137405,-0.628906,0.025757,0.777222,0,0,0
199,-0.442748,0.641221,-0.274809,-0.629883,0.020874,0.776489,0,0,0
202,-0.427481,0.442748,-0.122137,-0.62854,0.022827,0.771362,0,0,0
205,-0.152672,0.396947,-0.045802,-0.632324,0.023071,0.773804,0,0,0
208,0.030534,0.351145,-0.091603,-0.627319,0.026733,0.77417,0,0,0
211,0.061069,0.152672,-0.030534,-0.628906,0.021606,0.776001,0,0,0
214,0.229008,0.076336,0.10687,-0.630615,0.023682,0.775391,0,0,0
217,0.137405,0.061069,0.091603,-0.629639,0.026367,0.775391,0,0,0
220,0.21374,-0.076336,0.122137,-0.629883,0.026611,0.776367,0,0,0
223,0.10687,-0.10687,0.10687,-0.630859,0.02832,0.774658,0,0,0
226,0.137405,-0.259542,0,-0.628906,0.02832,0.774292,0,0,0
229,0.198473,-0.351145,0.10687,-0.626099,0.030029,0.775146,0,0,0
232,0,-0.427481,-0.091603,-0.629395,0.032227,0.775391,0,0,0
235,-0.091603,-0.687023,-0.274809,-0.630859,0.028564,0.7771,0,0,0
238,-0.091603,-0.70229,-0.320611,-0.628174,0.030151,0.775146,0,0,0
241,-0.21374,-0.80916,-0.351145,-0.630249,0.028442,0.776367,0,0,0
244,-0.366412,-0.900763,-0.366412,-0.627686,0.028442,0.775269,0,0,0
247,-0.564885,-1.083969,-0.351145,-0.628052,0.029663,0.774414,0,0,0
250,-0.381679,-1.175573,-0.580153,-0.630005,0.0271,0.776123,0,0,0
253,-0.580153,-1.221374,-0.549618,-0.630127,0.028931,0.776245,0,0,0
0,-0.641221,-1.328244,-0.687023,-0.631104,0.02771,0.772949,0,0,0
3,-0.748092,-1.374046,-0.778626,-0.626953,0.029419,0.776123,0,0,0
6,-0.916031,-1.450382,-0.80916,-0.626465,0.028687,0.778076,0,0,0
9,-0.885496,-1.541985,-0.900763,-0.626343,0.025879,0.7771,0,0,0
12,-0.870229,-1.557252,-0.900763,-0.626831,0.02832,0.776611,0,0,0
15,-1.099237,-1.587786,-1.129771,-0.625854,0.02832,0.774658,0,0,0
18,-1.40458,-1.725191,-1.175573,-0.630249,0.030884,0.773682,0,0,0
21,-1.358779,-1.709924,-1.312977,-0.630859,0.026611,0.774902,0,0,0
24,-1.419847,-1.78626,-1.419847,-0.630371,0.023071,0.776001,0,0,0
27,-1.267176,-1.78626,-1.40458,-0.628174,0.024414,0.775269,0,0,0
30,-1.358779,-1.938931,-1.419847,-0.628662,0.023682,0.775269,0,0,0
33,-1.129771,-1.984733,-1.465649,-0.629639,0.025391,0.779297,0,0,0
36,-1.099237,-2.015267,-1.419847,-0.631104,0.023682,0.781128,0,0,0
39,-0.946565,-2.076336,-1.603053,-0.62793,0.025635,0.774658,0,0,0
42,-1.083969,-2.137405,-1.603053,-0.629395,0.026611,0.776001,0,0,0
45,-1.282443,-2.305344,-1.618321,-0.628906,0.029663,0.774414,0,0,0
48,-1.160305,-2.229008,-1.664122,-0.629028,0.027222,0.773682,0,0,0
51,-1.206107,-2.396947,-1.954198,-0.625732,0.026367,0.776855,0,0,0
54,-1.465649,-2.412214,-1.740458,-0.629883,0.026245,0.77832,0,0,0
57,-1.282443,-2.48855,-1.908397,-0.625122,0.02478,0.776123,0,0,0
60,-1.145038,-2.59542,-1.709924,-0.62915,0.021362,0.774536,0,0,0
63,-1.022901,-2.70229,-1.664122,-0.627075,0.021729,0.775391,0,0,0
66,-0.916031,-2.656489,-1.587786,-0.631592,0.025879,0.776367,0,0,0
69,-0.931298,-2.59542,-1.587786,-0.625244,0.023438,0.778198,0,0,0
72,-0.946565,-2.671756,-1.358779,-0.628296,0.022705,0.777832,0,0,0
75,-0.80916,-2.625954,-1.40458,-0.624878,0.02417,0.776001,0,0,0
78,-0.778626,-2.610687,-1.389313,-0.625732,0.02124,0.77478,0,0,0
81,-0.70229,-2.748092,-1.267176,-0.629883,0.02356,0.776367,0,0,0
84,-0.671756,-2.748092,-1.251908,-0.628052,0.022583,0.777832,0,0,0
87,-0.290076,-2.70229,-1.175573,-0.628906,0.017944,0.778687,0,0,0
90,-0.10687,-2.641221,-1.099237,-0.630615,0.019531,0.775024,0,0,0
93,0,-2.610687,-1.068702,-0.628052,0.020508,0.775269,0,0,0
96,0.10687,-2.793893,-0.900763,-0.627075,0.023926,0.777466,0,0,0
99,0.351145,-2.641221,-0.900763,-0.626587,0.023315,0.776733,0,0,0
102,0.10687,-2.70229,-0.870229,-0.623779,0.026855,0.778198,0,0,0
105,0.015267,-2.671756,-0.80916,-0.627808,0.030151,0.774536,0,0,0
108,-0.351145,-2.793893,-0.854962,-0.626465,0.030151,0.778442,0,0,0
111,-0.534351,-2.748092,-0.961832,-0.622559,0.025024,0.779297,0,0,0
114,-0.320611,-2.656489,-0.977099,-0.626099,0.022827,0.774658,0,0,0
117,-0.290076,-2.778626,-0.870229,-0.626221,0.024048,0.777222,0,0,0
120,-0.259542,-2.763359,-0.687023,-0.626831,0.023682,0.77771,0,0,0
123,-0.198473,-2.839695,-0.793893,-0.623169,0.024536,0.77478,0,0,0
126,-0.442748,-2.793893,-0.732824,-0.621582,0.021484,0.779785,0,0,0
129,-0.274809,-2.625954,-0.564885,-0.626221,0.019165,0.778564,0,0,0
132,-0.076336,-2.549618,-0.549618,-0.626465,0.019897,0.776123,0,0,0
135,0.030534,-2.641221,-0.473282,-0.626953,0.026733,0.780762,0,0,0
138,0.091603,-2.59542,-0.427481,-0.625244,0.026733,0.779663,0,0,0
141,-0.061069,-2.48855,-0.473282,-0.622803,0.029541,0.776611,0,0,0
144,-0.167939,-2.458015,-0.549618,-0.62207,0.024536,0.779419,0,0,0
147,-0.167939,-2.458015,-0.427481,-0.625366,0.025269,0.781738,0,0,0
150,0.030534,-2.305344,-0.366412,-0.623779,0.025879,0.776123,0,0,0
153,-0.076336,-2.183206,-0.366412,-0.627075,0.020996,0.779419,0,0,0
156,-0.061069,-2.198473,-0.335878,-0.623169,0.022705,0.780884,0,0,0
159,0.076336,-2.076336,-0.198473,-0.625122,0.024536,0.781982,0,0,0
162,0.076336,-1.877863,-0.183206,-0.622314,0.025146,0.77771,0,0,0
165,0,-1.664122,-0.290076,-0.62207,0.0271,0.779175,0,0,0
168,0.015267,-1.618321,-0.21374,-0.623901,0.0271,0.7771,0,0,0
171,-0.122137,-1.496183,-0.244275,-0.623657,0.025024,0.777832,0,0,0
174,0.015267,-1.40458,-0.244275,-0.623779,0.02124,0.777588,0,0,0
177,0.091603,-1.435115,-0.061069,-0.623535,0.021729,0.777588,0,0,0
180,0.137405,-1.19084,-0.061069,-0.625122,0.022339,0.78064,0,0,0
183,0.244275,-1.221374,-0.10687,-0.624146,0.026001,0.779541,0,0,0
186,0.015267,-1.038168,-0.076336,-0.621704,0.022461,0.776367,0,0,0
189,0.290076,-0.961832,-0.122137,-0.625,0.023193,0.780396,0,0,0
192,0.244275,-0.839695,0,-0.623779,0.025146,0.779907,0,0,0
195,0.396947,-0.824427,-0.152672,-0.624146,0.025024,0.781982,0,0,0
198,0.305344,-0.748092,-0.137405,-0.620483,0.025513,0.780884,0,0,0
201,0.167939,-0.656489,-0.152672,-0.620239,0.027832,0.778198,0,0,0
204,0.030534,-0.534351,-0.274809,-0.623413,0.028687,0.778687,0,0,0
207,-0.122137,-0.59542,-0.229008,-0.624878,0.026001,0.78125,0,0,0
210,-0.305344,-0.503817,-0.381679,-0.626099,0.023804,0.781006,0,0,0
213,-0.305344,-0.427481,-0.259542,-0.621338,0.02478,0.780762,0,0,0
216,-0.259542,-0.351145,-0.396947,-0.624512,0.024902,0.780151,0,0,0
219,-0.244275,-0.290076,-0.21374,-0.624146,0.024658,0.778076,0,0,0
222,-0.229008,-0.167939,-0.335878,-0.625977,0.020142,0.780273,0,0,0
225,-0.015267,-0.229008,-0.412214,-0.625854,0.022949,0.78125,0,0,0
228,-0.152672,-0.030534,-0.335878,-0.627563,0.022095,0.779907,0,0,0
231,-0.167939,-0.274809,-0.21374,-0.625122,0.031372,0.772827,0,0,0
234,-0.381679,-0.198473,-0.564885,-0.622925,0.038086,0.773315,0,0,0
237,-1.328244,-0.381679,-0.70229,-0.630371,0.03479,0.775757,0,0,0
240,-1.648855,-0.59542,-0.885496,-0.625854,0.02771,0.781982,0,0,0
243,-1.709924,-0.473282,-0.946565,-0.623291,0.025757,0.780273,0,0,0
246,-1.480916,-0.59542,-1.007634,-0.623779,0.022461,0.780151,0,0,0
249,-1.267176,-0.625954,-1.022901,-0.625244,0.021606,0.777954,0,0,0
252,-1.251908,-0.748092,-0.992366,-0.627197,0.022583,0.779175,0,0,0
255,-1.129771,-0.549618,-1.068702,-0.625366,0.021729,0.778564,0,0,0
2,-1.160305,-0.671756,-0.992366,-0.625122,0.021851,0.779663,0,0,0
5,-1.083969,-0.641221,-0.946565,-0.624756,0.022705,0.780518,0,0,0
8,-0.961832,-0.625954,-0.885496,-0.621338,0.021973,0.776489,0,0,0
11,-1.099237,-0.59542,-1.007634,-0.623779,0.024658,0.778076,0,0,0
14,-1.129771,-0.534351,-0.916031,-0.625488,0.021484,0.782104,0,0,0
17,-1.145038,-0.473282,-0.916031,-0.621582,0.023438,0.778076,0,0,0
20,-1.099237,-0.412214,-0.885496,-0.623779,0.021851,0.777588,0,0,0
23,-0.992366,-0.351145,-0.961832,-0.625366,0.019653,0.78125,0,0,0
26,-0.992366,-0.21374,-0.916031,-0.625244,0.02417,0.779541,0,0,0
29,-0.900763,-0.137405,-0.839695,-0.623413,0.022217,0.780884,0,0,0
32,-0.992366,-0.045802,-0.839695,-0.62207,0.021973,0.779785,0,0,0
35,-0.70229,0.091603,-0.824427,-0.623535,0.020386,0.77832,0,0,0
38,-0.70229,0.244275,-0.641221,-0.624512,0.023926,0.77832,0,0,0
41,-0.732824,0.198473,-0.625954,-0.624268,0.022339,0.779663,0,0,0
44,-0.473282,0.335878,-0.412214,-0.622925,0.020996,0.778198,0,0,0
47,-0.519084,0.396947,-0.442748,-0.624023,0.022461,0.778564,0,0,0
50,-0.229008,0.534351,-0.244275,-0.622681,0.018555,0.777222,0,0,0
53,-0.045802,0.70229,-0.259542,-0.626343,0.019043,0.780273,0,0,0
56,0.045802,0.748092,-0.091603,-0.623901,0.019653,0.782593,0,0,0
59,0.183206,0.748092,0,-0.629028,0.020752,0.780762,0,0,0
62,0.198473,0.824427,0.152672,-0.62793,0.024414,0.77832,0,0,0
65,0.10687,0.870229,0.076336,-0.623657,0.029175,0.776611,0,0,0
68,-0.229008,0.931298,0.030534,-0.626465,0.027222,0.776611,0,0,0
71,-0.229008,0.977099,0.030534,-0.625122,0.020996,0.77771,0,0,0
74,-0.152672,1.007634,0.229008,-0.623779,0.021118,0.778076,0,0,0
77,0.061069,1.099237,0.244275,-0.624023,0.020874,0.779541,0,0,0
80,0.351145,1.145038,0.396947,-0.626953,0.020874,0.777832,0,0,0
83,0.48855,1.160305,0.442748,-0.624146,0.020264,0.780884,0,0,0
86,0.59542,1.160305,0.473282,-0.627441,0.020142,0.778931,0,0,0
89,0.610687,1.236641,0.671756,-0.627808,0.019653,0.777832,0,0,0
92,1.022901,1.251908,0.778626,-0.624878,0.020874,0.780762,0,0,0
95,0.961832,1.236641,0.763359,-0.624023,0.023071,0.778809,0,0,0
98,0.946565,1.251908,0.748092,-0.625,0.02002,0.775635,0,0,0
101,0.854962,1.221374,0.992366,-0.626099,0.026001,0.776001,0,0,0
104,0.885496,1.312977,0.778626,-0.626099,0.024658,0.777954,0,0,0
107,0.870229,1.267176,0.885496,-0.624512,0.022583,0.776611,0,0,0
110,1.206107,1.236641,0.916031,-0.629028,0.022095,0.778687,0,0,0
113,1.19084,1.129771,1.099237,-0.624756,0.019409,0.777466,0,0,0
116,1.267176,0.961832,0.977099,-0.626587,0.023438,0.779297,0,0,0
119,1.435115,1.053435,0.916031,-0.629883,0.023071,0.776489,0,0,0
122,1.343511,1.038168,0.931298,-0.632812,0.022095,0.778931,0,0,0
125,1.480916,0.916031,0.916031,-0.62439,0.025635,0.773682,0,0,0
128,1.419847,0.916031,0.916031,-0.628296,0.022461,0.779785,0,0,0
131,1.419847,0.900763,1.007634,-0.624756,0.023438,0.775513,0,0,0
134,1.526718,0.900763,0.748092,-0.627441,0.024902,0.776611,0,0,0
137,1.465649,0.793893,0.778626,-0.626709,0.023315,0.772949,0,0,0
140,1.40458,0.748092,0.625954,-0.632568,0.034302,0.773193,0,0,0
143,0.59542,0.549618,0.412214,-0.624512,0.03772,0.775635,0,0,0
146,0.122137,0.519084,0.122137,-0.630249,0.02832,0.773682,0,0,0
149,0.030534,0.503817,-0.030534,-0.626465,0.022217,0.772583,0,0,0
152,0.229008,0.305344,-0.198473,-0.628052,0.02002,0.778076,0,0,0
155,0.259542,0.061069,-0.244275,-0.629883,0.026855,0.773926,0,0,0
158,0.183206,-0.015267,-0.290076,-0.631958,0.030273,0.773071,0,0,0
161,-0.335878,-0.167939,-0.427481,-0.629761,0.031616,0.773682,0,0,0
164,-0.366412,-0.290076,-0.656489,-0.630615,0.029785,0.775269,0,0,0
167,-0.687023,-0.564885,-0.824427,-0.629761,0.028198,0.773438,0,0,0
170,-0.70229,-0.671756,-0.961832,-0.629761,0.028564,0.775635,0,0,0
173,-0.870229,-0.885496,-1.068702,-0.62915,0.021851,0.773438,0,0,0
176,-0.854962,-0.870229,-1.236641,-0.629395,0.024414,0.77478,0,0,0
179,-0.763359,-0.992366,-1.267176,-0.631226,0.023682,0.774048,0,0,0
182,-0.80916,-1.206107,-1.572519,-0.626953,0.02478,0.774414,0,0,0
185,-0.885496,-1.389313,-1.603053,-0.62793,0.023926,0.775391,0,0,0
188,-1.038168,-1.419847,-1.770992,-0.630249,0.026855,0.776123,0,0,0
191,-1.282443,-1.603053,-2.015267,-0.630371,0.029541,0.773804,0,0,0
194,-1.267176,-1.648855,-2.198473,-0.626343,0.026245,0.775391,0,0,0
197,-1.374046,-1.816794,-2.229008,-0.626221,0.027344,0.774902,0,0,0
200,-1.419847,-1.816794,-2.59542,-0.628906,0.023071,0.776855,0,0,0
203,-1.328244,-1.954198,-2.778626,-0.627075,0.025879,0.77478,0,0,0
206,-1.480916,-2.183206,-2.870229,-0.630005,0.025513,0.776367,0,0,0
209,-1.435115,-2.091603,-3.236641,-0.62439,0.026733,0.7771,0,0,0
212,-1.541985,-2.122137,-3.282443,-0.628174,0.022705,0.7771,0,0,0
215,-1.465649,-2.259542,-3.40458,-0.624023,0.025269,0.781006,0,0,0
218,-1.175573,-2.21374,-3.618321,-0.626831,0.022949,0.778687,0,0,0
221,-1.480916,-2.091603,-3.587786,-0.627197,0.022461,0.776367,0,0,0
224,-1.435115,-2.167939,-3.679389,-0.62561,0.025757,0.780029,0,0,0
227,-1.419847,-2.061069,-3.770992,-0.625854,0.023804,0.778198,0,0,0
230,-1.389313,-2.122137,-3.694656,-0.623779,0.021973,0.778442,0,0,0
233,-1.450382,-2.061069,-3.770992,-0.625244,0.023315,0.779297,0,0,0
236,-1.175573,-2.122137,-3.755725,-0.626343,0.023193,0.777832,0,0,0
239,-1.465649,-2.229008,-3.679389,-0.625488,0.023315,0.777222,0,0,0
242,-1.312977,-2.122137,-4.137405,-0.625854,0.021606,0.777222,0,0,0
245,-1.312977,-2.076336,-4.229008,-0.624268,0.024658,0.775757,0,0,0
248,-1.496183,-2.045802,-4.381679,-0.626099,0.022705,0.779541,0,0,0
251,-1.694656,-1.969466,-4.59542,-0.624634,0.025146,0.777222,0,0,0
254,-1.877863,-1.89313,-4.839695,-0.620605,0.032471,0.776367,0,0,0
1,-2.396947,-1.984733,-4.977099,-0.625,0.032349,0.777222,0,0,0
4,-2.641221,-2.076336,-5.068702,-0.625,0.026367,0.778442,0,0,0
7,-2.763359,-2.030534,-5.328244,-0.626709,0.022217,0.777222,0,0,0
10,-2.748092,-1.816794,-5.51145,-0.62561,0.021118,0.778076,0,0,0
13,-2.748092,-1.923664,-5.480916,-0.627075,0.018311,0.778687,0,0,0
16,-2.381679,-1.832061,-5.51145,-0.629272,0.018799,0.778931,0,0,0
19,-2.442748,-1.89313,-5.770992,-0.627441,0.02356,0.779175,0,0,0
22,-2.656489,-1.938931,-5.862595,-0.625732,0.019897,0.776611,0,0,0
25,-2.580153,-1.832061,-5.984733,-0.626587,0.021484,0.778564,0,0,0
28,-2.717557,-1.832061,-6.061069,-0.623535,0.019043,0.777832,0,0,0
31,-2.473282,-1.984733,-6.122137,-0.627319,0.02356,0.775391,0,0,0
34,-2.610687,-1.954198,-6.442748,-0.626587,0.029419,0.774536,0,0,0
37,-3.145038,-2.10687,-6.732824,-0.626709,0.025269,0.774658,0,0,0
40,-3.267176,-2.137405,-6.80916,-0.62561,0.021484,0.776367,0,0,0
43,-3.206107,-2.091603,-7.129771,-0.627319,0.019531,0.778198,0,0,0
46,-3.099237,-2.152672,-7.175573,-0.623047,0.016113,0.777588,0,0,0
49,-3.068702,-2.229008,-7.251908,-0.626709,0.016235,0.774658,0,0,0
52,-2.916031,-2.351145,-7.328244,-0.625244,0.015869,0.778076,0,0,0
55,-2.824427,-2.458015,-7.465649,-0.630493,0.0177,0.779541,0,0,0
58,-2.351145,-3.053435,-7.068702,-0.633301,0.015137,0.776978,0,0,0
61,-2.137405,-3.389313,-7.312977,-0.627441,0.017822,0.780396,0,0,0
64,-2,-3.709924,-6.793893,-0.635498,0.012939,0.787842,0,0,0
67,-1.969466,-2.351145,-8.717557,-0.600464,0.015991,0.762329,0,0,0
70,-2.564885,-1.51145,-10.122137,-0.636353,0.049683,0.785034,0,0,0
73,-2.931298,-3.526718,-7.725191,-0.63208,0.008667,0.7771,0,0,0
76,-2.351145,-3.114504,-9.389313,-0.631958,0.007446,0.773438,0,0,0
79,-2.015267,-3.267176,-9.236641,-0.627319,0.014038,0.781982,0,0,0
82,-1.832061,-3.374046,-9.557252,-0.625854,0.013062,0.769165,0,0,0
85,-1.496183,-3.480916,-9.78626,-0.630127,0.014771,0.776978,0,0,0
88,-1.312977,-4.015267,-9.709924,-0.631104,0.014893,0.77124,0,0,0
91,-1.282443,-3.908397,-10.473282,-0.622681,0.02063,0.772461,0,0,0
94,-1.709924,-4,-10.80916,-0.629395,0.026611,0.776733,0,0,0
97,-1.740458,-4.534351,-10.900763,-0.624146,0.018555,0.773071,0,0,0
100,-1.89313,-3.877863,-12,-0.622314,0.025269,0.778076,0,0,0
103,-1.877863,-4.839695,-11.389313,-0.628296,0.012329,0.776611,0,0,0
106,-1.679389,-5.175573,-12.183206,-0.630249,0.010132,0.769653,0,0,0
109,-1.29771,-5.435115,-12.244275,-0.633667,0.013062,0.779297,0,0,0
112,-0.839695,-6.748092,-11.938931,-0.62793,0.002075,0.769043,0,0,0
115,-0.21374,-6.458015,-12.916031,-0.616455,0.015015,0.77124,0,0,0
118,-0.412214,-6.030534,-12.442748,-0.652588,0.024414,0.804932,0,0,0
121,-0.335878,-6.137405,-14.030534,-0.593872,0.00415,0.756958,0,0,0
124,-0.916031,-4.503817,-15.923664,-0.628784,0.047729,0.790283,0,0,0
127,-1.572519,-6.412214,-13.969466,-0.637451,0.020874,0.784668,0,0,0
130,-1.282443,-6.70229,-15.328244,-0.623779,0.000366,0.770996,0,0,0
133,-0.80916,-7.038168,-15.664122,-0.624756,0.024292,0.7854,0,0,0
136,-1.312977,-7.664122,-15.938931,-0.620728,0.017578,0.776489,0,0,0
139,-1.29771,-7.435115,-16.152672,-0.62854,0.024658,0.789917,0,0,0
142,-1.038168,-8.687023,-15.557252,-0.612549,0.002075,0.772461,0,0,0
145,-0.778626,-7.587786,-17.29771,-0.620972,0.014404,0.773682,0,0,0
148,-1.19084,-6.274809,-17.877863,-0.616211,0.027344,0.773315,0,0,0
151,-1.40458,-7.847328,-16.839695,-0.641968,0.014526,0.786621,0,0,0
154,-1.450382,-7.328244,-18.152672,-0.602173,0.011963,0.77417,0,0,0
157,-1.51145,-7.083969,-17.984733,-0.639038,0.02771,0.799683,0,0,0
160,-1.572519,-6.412214,-18.564885,-0.598389,0.004517,0.77771,0,0,0
163,-1.740458,-5.40458,-19.816794,-0.612915,0.01709,0.785522,0,0,0
166,-1.679389,-5.038168,-19.099237,-0.615234,0.009155,0.79187,0,0,0
169,-1.526718,-4.412214,-19.89313,-0.61377,0.009766,0.793579,0,0,0
172,-1.053435,-4.412214,-19.358779,-0.619507,0.006714,0.793701,0,0,0
175,-0.854962,-3.801527,-19.801527,-0.604004,0.00708,0.790894,0,0,0
178,-0.732824,-2.916031,-19.816794,-0.607178,0.007935,0.784668,0,0,0
181,-0.717557,-2.152672,-20.091603,-0.615845,0.008789,0.785645,0,0,0
184,-0.412214,-1.847328,-20.229008,-0.617798,0.011719,0.78894,0,0,0
187,-0.503817,-1.89313,-20.305344,-0.618408,0.012329,0.782959,0,0,0
190,-0.870229,-2.061069,-20.610687,-0.620605,0.016846,0.78125,0,0,0
193,-1.160305,-1.770992,-21.526718,-0.620239,0.02124,0.780273,0,0,0
196,-1.847328,-2.198473,-21.78626,-0.622803,0.017578,0.784058,0,0,0
199,-2.061069,-2.335878,-22.152672,-0.615601,0.016602,0.784302,0,0,0
202,-2.183206,-2.152672,-22.641221,-0.618896,0.012695,0.782471,0,0,0
205,-2.351145,-1.740458,-23.175573,-0.609985,0.011353,0.782959,0,0,0
208,-2.580153,-1.251908,-23.175573,-0.615723,0.009155,0.787354,0,0,0
211,-2.824427,-1.129771,-23.068702,-0.618896,0.001831,0.791382,0,0,0
214,-2.625954,-0.977099,-23.053435,-0.613037,-0.004761,0.787598,0,0,0
217,-2.259542,-0.48855,-23.206107,-0.616699,-0.001953,0.787354,0,0,0
220,-1.648855,-0.381679,-22.900763,-0.623657,-0.009155,0.785645,0,0,0
223,-1.160305,0.137405,-23.251908,-0.610352,-0.007324,0.780518,0,0,0
226,-0.885496,0.48855,-23.19084,-0.626587,0.003174,0.789673,0,0,0
229,-0.473282,0.152672,-22.061069,-0.614502,-0.011841,0.78125,0,0,0
232,0.152672,0.854962,-22.610687,-0.609741,-0.009399,0.785278,0,0,0
235,0.824427,1.175573,-22.931298,-0.61438,-0.005981,0.786743,0,0,0
238,1.206107,1.480916,-22.717557,-0.616821,-0.005859,0.788208,0,0,0
241,1.923664,1.770992,-22.748092,-0.612793,-0.006714,0.788208,0,0,0
244,2.198473,2.167939,-22.870229,-0.617676,-0.001831,0.787964,0,0,0
247,2.015267,2.503817,-22.824427,-0.615723,0.002808,0.786133,0,0,0
250,2.167939,2.580153,-22.534351,-0.616943,-0.003174,0.790405,0,0,0
253,2.21374,2.839695,-22.473282,-0.614014,-0.008301,0.784424,0,0,0
0,2.229008,3.572519,-22.717557,-0.614624,0.000488,0.785156,0,0,0
3,2.198473,4.015267,-22.183206,-0.614502,-0.005737,0.789917,0,0,0
6,2.580153,4.625954,-22.396947,-0.611206,-0.008179,0.784546,0,0,0
9,2.992366,4.641221,-21.89313,-0.62085,-0.009521,0.790283,0,0,0
12,3.129771,4.885496,-22.045802,-0.619751,-0.010376,0.784668,0,0,0
15,3.374046,5.053435,-21.572519,-0.616577,-0.011597,0.784058,0,0,0
18,3.51145,5.51145,-21.740458,-0.619751,-0.005615,0.783569,0,0,0
21,3.480916,5.587786,-21.633588,-0.619141,-0.008179,0.783691,0,0,0
24,3.969466,5.603053,-21.496183,-0.618042,-0.008423,0.785034,0,0,0
27,4.274809,5.496183,-21.129771,-0.617798,-0.007935,0.786987,0,0,0
30,4.671756,5.251908,-21.083969,-0.61731,-0.011108,0.777588,0,0,0
33,4.045802,6.748092,-21.832061,-0.612671,0.005493,0.782593,0,0,0
36,3.572519,5.664122,-19.938931,-0.646851,-0.006104,0.800781,0,0,0
39,3.847328,6.21374,-21.267176,-0.596313,-0.015015,0.766357,0,0,0
42,3.984733,6.70229,-21.068702,-0.624756,-0.002319,0.786621,0,0,0
45,3.450382,6.824427,-20.824427,-0.617798,-0.005737,0.780518,0,0,0
48,3.694656,7.450382,-20.80916,-0.616699,-0.014771,0.782349,0,0,0
51,3.633588,7.938931,-20.320611,-0.624634,-0.013794,0.783447,0,0,0
54,4.137405,7.038168,-20.351145,-0.627197,-0.012695,0.779907,0,0,0
57,4.931298,6.503817,-19.343511,-0.625977,-0.013184,0.786987,0,0,0
60,5.526718,6.259542,-19.29771,-0.624146,-0.013428,0.782349,0,0,0
63,5.526718,7.068702,-20.183206,-0.615479,-0.003296,0.781372,0,0,0
66,5.374046,7.618321,-20.244275,-0.628174,-0.001099,0.783691,0,0,0
69,5.618321,6.763359,-19.450382,-0.626343,-0.016968,0.782227,0,0,0
72,5.633588,7.114504,-19.541985,-0.618164,-0.019897,0.776245,0,0,0
75,6.030534,7.465649,-19.832061,-0.623535,-0.010132,0.776001,0,0,0
78,6.152672,7.725191,-19.801527,-0.626465,-0.009033,0.783203,0,0,0
81,6.610687,7.633588,-19.083969,-0.622437,-0.021973,0.775635,0,0,0
84,6.977099,8.305344,-19.40458,-0.620483,-0.017944,0.7771,0,0,0
87,7.419847,8.625954,-19.541985,-0.625854,-0.013062,0.778809,0,0,0
90,7.526718,8.656489,-19.328244,-0.626099,-0.008789,0.775146,0,0,0
93,7.038168,9.007634,-18.854962,-0.624756,-0.011108,0.778809,0,0,0
96,7.358779,8.748092,-18.748092,-0.622681,-0.014404,0.776367,0,0,0
99,7.389313,8.854962,-18.839695,-0.625854,-0.006226,0.778564,0,0,0
102,7.358779,8.48855,-18.778626,-0.62793,-0.008667,0.777222,0,0,0
105,7.51145,8.198473,-18.641221,-0.629883,-0.013428,0.774536,0,0,0
108,7.816794,7.984733,-18.458015,-0.631592,-0.020752,0.779663,0,0,0
111,8.045802,7.068702,-18.137405,-0.630737,-0.021118,0.777344,0,0,0
114,8.320611,6.656489,-17.801527,-0.63147,-0.023315,0.778687,0,0,0
117,8.931298,5.832061,-16.748092,-0.63147,-0.029419,0.780762,0,0,0
120,9.755725,5.114504,-15.923664,-0.63147,-0.029785,0.778198,0,0,0
123,10.793893,4.580153,-15.328244,-0.628906,-0.031616,0.778564,0,0,0
126,11.694656,3.938931,-14.427481,-0.631836,-0.026367,0.775513,0,0,0
129,12.80916,3.312977,-13.908397,-0.631958,-0.02063,0.775757,0,0,0
132,13.145038,3.618321,-14.122137,-0.628662,-0.006348,0.776367,0,0,0
135,13.038168,3.664122,-14,-0.630493,-0.008545,0.77771,0,0,0
138,12.656489,2.503817,-13.435115,-0.644043,-0.011108,0.782959,0,0,0
141,13.053435,2.763359,-13.465649,-0.620361,-0.017578,0.77063,0,0,0
144,12.610687,1.221374,-13.816794,-0.637329,-0.00415,0.757935,0,0,0
147,11.862595,1.923664,-13.389313,-0.631226,-0.011719,0.780396,0,0,0
150,11.587786,2.519084,-14.70229,-0.623047,-0.008179,0.780518,0,0,0
153,11.801527,1.328244,-13.679389,-0.644043,-0.015747,0.781372,0,0,0
156,12.183206,0.366412,-13.267176,-0.633301,-0.024658,0.766479,0,0,0
159,12.335878,1.770992,-15.129771,-0.617554,-0.019409,0.755493,0,0,0
162,12.015267,3.40458,-15.740458,-0.629883,-0.000244,0.781372,0,0,0
165,11.51145,3.709924,-15.679389,-0.627441,-0.013794,0.774048,0,0,0
168,11.679389,4.030534,-15.664122,-0.634644,-0.016357,0.775879,0,0,0
171,12.21374,3.923664,-15.572519,-0.627441,-0.018311,0.769653,0,0,0
174,12.580153,4.167939,-15.755725,-0.634033,-0.012207,0.774292,0,0,0
177,12.656489,3.89313,-15.450382,-0.632324,-0.008057,0.773804,0,0,0
180,12.091603,4.152672,-15.618321,-0.626465,-0.008057,0.769653,0,0,0
183,11.664122,4.305344,-15.29771,-0.634155,-0.005127,0.776611,0,0,0
186,10.992366,3.740458,-15.099237,-0.63147,-0.014893,0.770386,0,0,0
189,10.641221,4,-15.312977,-0.629028,-0.010742,0.772217,0,0,0
192,10.610687,3.78626,-15.19084,-0.633789,-0.008423,0.775146,0,0,0
195,10.885496,3.236641,-15.007634,-0.632935,-0.011353,0.774658,0,0,0
198,10.839695,3.007634,-14.80916,-0.632812,-0.01062,0.772949,0,0,0
201,10.80916,2.70229,-14.351145,-0.631226,-0.015747,0.775269,0,0,0
204,10.839695,2.80916,-14.366412,-0.628784,-0.01416,0.771484,0,0,0
207,11.145038,2.564885,-14.21374,-0.634644,-0.015259,0.774292,0,0,0
210,10.900763,2.885496,-14.503817,-0.623413,-0.009155,0.772461,0,0,0
213,10.396947,2.916031,-14.183206,-0.635132,-0.009399,0.771362,0,0,0
216,9.908397,2.381679,-13.89313,-0.633423,-0.014282,0.771484,0,0,0
219,9.618321,2.519084,-13.89313,-0.629272,-0.007446,0.773438,0,0,0
222,9.374046,2.335878,-13.816794,-0.634399,-0.004883,0.772095,0,0,0
225,8.80916,2.061069,-13.648855,-0.63562,-0.010498,0.773193,0,0,0
228,8.763359,1.78626,-13.541985,-0.635986,-0.020508,0.771973,0,0,0
231,9.145038,1.465649,-13.40458,-0.634521,-0.019409,0.770508,0,0,0
234,9.679389,1.083969,-13.29771,-0.634888,-0.019043,0.772461,0,0,0
237,10.030534,0.824427,-13.251908,-0.634277,-0.019043,0.768921,0,0,0
240,9.603053,0.503817,-12.961832,-0.632812,-0.017456,0.771973,0,0,0
243,9.938931,0.412214,-12.824427,-0.637207,-0.017456,0.771484,0,0,0
246,10.351145,0.122137,-12.549618,-0.636841,-0.0177,0.772705,0,0,0
249,10.793893,-0.381679,-12.290076,-0.633057,-0.018066,0.769653,0,0,0
252,10.671756,-0.381679,-12.335878,-0.638062,-0.013672,0.771606,0,0,0
255,10.625954,-0.580153,-12.122137,-0.634644,-0.01416,0.773071,0,0,0
2,10.351145,-0.70229,-12.259542,-0.635376,-0.01062,0.77124,0,0,0
5,9.954198,-0.763359,-12.137405,-0.634399,-0.012939,0.772827,0,0,0
8,9.664122,-1.022901,-11.938931,-0.636108,-0.013794,0.771851,0,0,0
11,10.091603,-1.267176,-11.847328,-0.634521,-0.014526,0.770874,0,0,0
14,10.442748,-1.419847,-11.847328,-0.63208,-0.015869,0.773315,0,0,0
17,11.038168,-1.603053,-11.816794,-0.627563,-0.015747,0.772217,0,0,0
20,11.099237,-1.709924,-11.770992,-0.631226,-0.01355,0.774048,0,0,0
23,10.687023,-1.78626,-11.694656,-0.633057,-0.01355,0.774292,0,0,0
26,10.549618,-1.816794,-11.51145,-0.631104,-0.015747,0.776245,0,0,0
29,10.671756,-1.984733,-11.465649,-0.631348,-0.018433,0.776489,0,0,0
32,11.053435,-2.015267,-11.328244,-0.631714,-0.015381,0.775635,0,0,0
35,11.541985,-2,-11.175573,-0.629761,-0.015381,0.780029,0,0,0
38,11.389313,-1.908397,-11.160305,-0.62854,-0.014526,0.771729,0,0,0
41,10.946565,-1.801527,-10.946565,-0.631348,-0.01355,0.777344,0,0,0
44,11.145038,-1.832061,-11.053435,-0.630249,-0.013672,0.775635,0,0,0
47,12.076336,-1.908397,-11.129771,-0.629761,-0.010132,0.775024,0,0,0
50,11.770992,-2.244275,-11.374046,-0.630371,0.006592,0.774902,0,0,0
53,10.854962,-2.59542,-11.541985,-0.631592,0.006714,0.776367,0,0,0
56,10.015267,-3.206107,-11.679389,-0.629028,-0.00293,0.773804,0,0,0
59,9.618321,-3.618321,-11.343511,-0.633057,-0.008789,0.773193,0,0,0
62,9.78626,-4.091603,-11.129771,-0.633667,-0.015381,0.776978,0,0,0
65,10,-4.70229,-10.396947,-0.634155,-0.0177,0.773438,0,0,0
68,10.305344,-5.465649,-9.984733,-0.633423,-0.016479,0.770264,0,0,0
71,10.259542,-5.541985,-9.877863,-0.629639,-0.015503,0.775146,0,0,0
74,10.473282,-5.664122,-9.984733,-0.633301,-0.010132,0.77832,0,0,0
77,10.152672,-5.694656,-9.801527,-0.631836,-0.008423,0.776367,0,0,0
80,10.259542,-6.396947,-9.679389,-0.630737,-0.014282,0.766113,0,0,0
83,10.396947,-6.381679,-9.267176,-0.63208,-0.020264,0.771973,0,0,0
86,10.824427,-5.862595,-10.48855,-0.625,-0.016235,0.767822,0,0,0
89,10.80916,-5.251908,-11.19084,-0.630127,0.000244,0.772339,0,0,0
92,10.335878,-5.19084,-11.175573,-0.629272,-0.005371,0.774536,0,0,0
95,9.862595,-5.312977,-11.343511,-0.634644,-0.004028,0.776367,0,0,0
98,9.740458,-6.259542,-10.977099,-0.633301,-0.013916,0.768555,0,0,0
101,9.053435,-4.885496,-12.381679,-0.622559,0.005127,0.770508,0,0,0
104,7.969466,-4.839695,-12.503817,-0.63562,0.003784,0.774902,0,0,0
107,7.374046,-4.427481,-12.763359,-0.630615,-0.004639,0.777222,0,0,0
110,7.526718,-4.946565,-12.900763,-0.632446,-0.011841,0.776123,0,0,0
113,7.89313,-5.053435,-12.824427,-0.625732,-0.016724,0.776245,0,0,0
116,7.679389,-4.870229,-12.977099,-0.630859,-0.016357,0.777466,0,0,0
119,7.541985,-5.114504,-12.793893,-0.629517,-0.014282,0.773926,0,0,0
122,7.022901,-5.007634,-12.458015,-0.627563,-0.014648,0.774658,0,0,0
125,6.793893,-5.068702,-12.717557,-0.629395,-0.008545,0.777344,0,0,0
128,7.053435,-5.374046,-12.549618,-0.626587,-0.011475,0.774292,0,0,0
131,7.221374,-5.083969,-12.778626,-0.629761,-0.007812,0.777466,0,0,0
134,7.114504,-5.312977,-12.946565,-0.630127,-0.006348,0.776367,0,0,0
137,7.267176,-5.282443,-13.038168,-0.62561,-0.005737,0.775024,0,0,0
140,7.068702,-5.328244,-13.221374,-0.63147,-0.003296,0.7771,0,0,0
143,6.396947,-5.419847,-13.068702,-0.625122,-0.012329,0.772583,0,0,0
146,6.671756,-5.145038,-13.29771,-0.629028,-0.013428,0.776245,0,0,0
149,6.335878,-5.328244,-13.312977,-0.629639,-0.010254,0.775635,0,0,0
152,5.969466,-5.480916,-13.114504,-0.627563,-0.016724,0.777344,0,0,0
155,5.78626,-5.389313,-13.160305,-0.628174,-0.012817,0.77771,0,0,0
158,6.10687,-5.343511,-13.175573,-0.622681,-0.015259,0.776001,0,0,0
161,5.89313,-5.099237,-13.251908,-0.623535,-0.017456,0.778931,0,0,0
164,5.89313,-5.038168,-13.175573,-0.625854,-0.019653,0.781738,0,0,0
167,6.183206,-4.931298,-13.022901,-0.621338,-0.021118,0.781982,0,0,0
170,6.061069,-4.854962,-12.717557,-0.624878,-0.022583,0.777344,0,0,0
173,6.80916,-4.59542,-12.687023,-0.622681,-0.026001,0.78125,0,0,0
176,7.541985,-4.274809,-12.656489,-0.624023,-0.024414,0.780273,0,0,0
179,8.48855,-4.244275,-12.458015,-0.624146,-0.016968,0.780518,0,0,0
182,8.396947,-4.137405,-12.458015,-0.622192,-0.008911,0.776733,0,0,0
185,8.061069,-3.877863,-12.641221,-0.624512,-0.009277,0.776611,0,0,0
188,8.076336,-3.755725,-12.564885,-0.622192,-0.007812,0.777832,0,0,0
191,8.030534,-3.664122,-12.870229,-0.628296,-0.004028,0.776489,0,0,0
194,7.267176,-3.603053,-12.870229,-0.627563,-0.00415,0.777222,0,0,0
197,6.763359,-3.419847,-12.992366,-0.625977,-0.011597,0.781372,0,0,0
200,6.900763,-3.312977,-13.068702,-0.62439,-0.015259,0.781006,0,0,0
203,7.145038,-3.29771,-13.053435,-0.621582,-0.015625,0.779297,0,0,0
206,7.633588,-3.145038,-12.977099,-0.623169,-0.01709,0.781006,0,0,0
209,7.603053,-3.038168,-13.053435,-0.625,-0.015869,0.77832,0,0,0
212,7.267176,-2.961832,-12.870229,-0.623169,-0.012695,0.7771,0,0,0
215,7.206107,-2.732824,-12.671756,-0.623413,-0.017822,0.777466,0,0,0
218,6.977099,-2.687023,-12.473282,-0.622559,-0.017212,0.779297,0,0,0
221,7.007634,-2,-12.793893,-0.623291,-0.012695,0.781616,0,0,0
224,7.374046,-1.541985,-12.839695,-0.620239,-0.019531,0.780151,0,0,0
227,7.694656,-1.282443,-13.236641,-0.630737,-0.008911,0.788574,0,0,0
230,8.625954,-2.091603,-12.274809,-0.626465,-0.026001,0.778809,0,0,0
233,8.977099,-1.938931,-12.183206,-0.624023,-0.02063,0.782715,0,0,0
236,9.251908,-1.129771,-12.564885,-0.617798,-0.019775,0.774414,0,0,0
239,8.824427,-1.221374,-12.076336,-0.63269,-0.013428,0.782837,0,0,0
242,8.992366,-1.587786,-11.862595,-0.62561,-0.025635,0.779907,0,0,0
245,9.236641,-1.312977,-11.847328,-0.623657,-0.024536,0.781738,0,0,0
248,8.946565,-1.251908,-11.755725,-0.624268,-0.018433,0.779053,0,0,0
251,8.671756,-0.885496,-12.061069,-0.621338,-0.012451,0.775635,0,0,0
254,8.885496,-1.083969,-11.633588,-0.627075,-0.016235,0.778809,0,0,0
1,9.038168,-1.053435,-12.076336,-0.625977,-0.014526,0.776733,0,0,0
4,9.557252,-0.916031,-12.076336,-0.623657,-0.020142,0.780884,0,0,0
7,10.274809,-0.961832,-12.167939,-0.626709,-0.019409,0.783569,0,0,0
10,11.160305,-1.068702,-12,-0.623291,-0.024414,0.780518,0,0,0
13,12.030534,-0.885496,-12.274809,-0.624756,-0.02002,0.781128,0,0,0
16,12.396947,-0.931298,-12.366412,-0.626831,-0.015625,0.781006,0,0,0
19,11.618321,-0.80916,-12.21374,-0.621826,-0.01355,0.776001,0,0,0
22,11.206107,-0.610687,-12.183206,-0.628174,-0.008545,0.779297,0,0,0
25,10.717557,-0.839695,-12.305344,-0.626221,-0.007324,0.776001,0,0,0
28,10.442748,-0.916031,-12.687023,-0.627075,-0.006348,0.775879,0,0,0
31,10.229008,-1.083969,-12.961832,-0.630737,-0.009399,0.778076,0,0,0
34,9.984733,-0.916031,-13.099237,-0.621582,-0.010498,0.778076,0,0,0
37,10.198473,-0.931298,-13.419847,-0.62854,-0.009644,0.778687,0,0,0
40,10.610687,-1.206107,-13.465649,-0.623657,-0.012451,0.779175,0,0,0
43,10.854962,-0.977099,-13.816794,-0.624756,-0.008789,0.776489,0,0,0
46,10.122137,-1.083969,-14.061069,-0.62439,-0.007446,0.777832,0,0,0
49,9.618321,-0.885496,-14.152672,-0.61792,-0.010986,0.779663,0,0,0
52,9.038168,-0.854962,-14.21374,-0.625488,-0.01123,0.783203,0,0,0
55,9.267176,-0.793893,-14.412214,-0.621338,-0.012329,0.777832,0,0,0
58,8.824427,-0.732824,-14.641221,-0.619385,-0.012451,0.782104,0,0,0
61,9.328244,-0.717557,-14.778626,-0.62207,-0.015747,0.781128,0,0,0
64,9.679389,-0.641221,-15.038168,-0.617554,-0.016357,0.777222,0,0,0
67,10.091603,-0.717557,-15.40458,-0.622803,-0.008301,0.780884,0,0,0
70,9.923664,-0.580153,-15.389313,-0.623413,-0.007568,0.778442,0,0,0
73,9.114504,-0.70229,-15.664122,-0.623169,-0.004272,0.781616,0,0,0
76,8.717557,-0.717557,-15.78626,-0.626221,-0.006592,0.783936,0,0,0
79,8.274809,-1.099237,-15.664122,-0.626099,-0.012695,0.782715,0,0,0
82,8.259542,-1.679389,-15.526718,-0.623779,-0.015625,0.779663,0,0,0
85,9.083969,-1.969466,-15.419847,-0.624512,-0.019287,0.787231,0,0,0
88,9.465649,-2.412214,-15.175573,-0.622437,-0.019897,0.786987,0,0,0
91,10.305344,-3.007634,-14.793893,-0.621338,-0.02002,0.788818,0,0,0
94,10.412214,-3.526718,-14.732824,-0.62439,-0.009399,0.781006,0,0,0
97,9.022901,-3.343511,-14.610687,-0.621094,-0.003296,0.778076,0,0,0
100,8.244275,-3.038168,-14.687023,-0.619263,-0.005127,0.78064,0,0,0
103,7.89313,-2.717557,-15.633588,-0.622192,-0.005859,0.777466,0,0,0
106,7.633588,-2.717557,-15.419847,-0.620728,-0.015381,0.786011,0,0,0
109,7.587786,-2.366412,-16.183206,-0.625122,-0.009155,0.781494,0,0,0
112,7.984733,-2.793893,-16.396947,-0.619019,-0.015137,0.778931,0,0,0
115,8.015267,-3.251908,-16.412214,-0.630127,-0.004517,0.786133,0,0,0
118,7.496183,-1.679389,-16.763359,-0.599121,-0.018799,0.775391,0,0,0
121,7.419847,-0.442748,-17.78626,-0.621948,-0.009155,0.783936,0,0,0
124,6.519084,0.259542,-17.679389,-0.617188,-0.012939,0.784546,0,0,0
127,7.419847,0.122137,-17.465649,-0.616455,-0.026978,0.779907,0,0,0
130,9.603053,0.290076,-17.328244,-0.62439,-0.029053,0.786133,0,0,0
133,9.114504,0.916031,-17.282443,-0.613159,-0.020996,0.779907,0,0,0
136,8.580153,1.435115,-16.916031,-0.620117,-0.020996,0.784424,0,0,0
139,7.89313,1.89313,-16.717557,-0.616333,-0.024536,0.784546,0,0,0
142,8.183206,1.969466,-16.061069,-0.62439,-0.030029,0.783691,0,0,0
145,8.977099,2.061069,-15.938931,-0.618408,-0.022705,0.783691,0,0,0
148,9.251908,2.259542,-15.862595,-0.621094,-0.023193,0.778931,0,0,0
151,9.236641,2.732824,-15.847328,-0.620728,-0.020508,0.779419,0,0,0
154,9.480916,3.068702,-15.541985,-0.623779,-0.021484,0.783936,0,0,0
157,10.259542,3.068702,-15.358779,-0.622925,-0.023071,0.779053,0,0,0
160,10.625954,3.40458,-14.992366,-0.622559,-0.027344,0.783813,0,0,0
163,12.122137,3.343511,-14.854962,-0.619507,-0.027222,0.782837,0,0,0
166,12.519084,3.419847,-14.854962,-0.621948,-0.02417,0.779785,0,0,0
169,11.679389,3.618321,-14.70229,-0.625366,-0.017944,0.775635,0,0,0
172,10.503817,3.847328,-14.442748,-0.626709,-0.018188,0.782104,0,0,0
175,11.251908,3.847328,-14.381679,-0.623901,-0.023193,0.778076,0,0,0
178,12.030534,3.694656,-14.305344,-0.624756,-0.025146,0.780151,0,0,0
181,12.305344,3.664122,-14.21374,-0.624756,-0.017822,0.775269,0,0,0
184,12.076336,3.465649,-14.137405,-0.628784,-0.015747,0.776367,0,0,0
187,11.29771,3.358779,-14,-0.625977,-0.013184,0.778198,0,0,0
190,11.435115,3.129771,-14.091603,-0.624146,-0.015015,0.77417,0,0,0
193,11.068702,3.251908,-14.167939,-0.628052,-0.015381,0.771606,0,0,0
196,10.656489,3.251908,-14.015267,-0.629272,-0.018921,0.779053,0,0,0
199,10.946565,3.068702,-13.89313,-0.635254,-0.022095,0.774902,0,0,0
202,11.435115,2.977099,-13.496183,-0.627075,-0.027222,0.7771,0,0,0
205,12.259542,2.900763,-13.51145,-0.627075,-0.021851,0.771606,0,0,0
208,12.412214,2.671756,-13.40458,-0.629272,-0.021973,0.771851,0,0,0
211,12.534351,2.641221,-13.160305,-0.628052,-0.021851,0.773682,0,0,0
214,12.259542,2.412214,-13.19084,-0.626221,-0.010986,0.773926,0,0,0
217,11.557252,2.351145,-13.175573,-0.625854,-0.008057,0.774902,0,0,0
220,10.748092,2.259542,-13.251908,-0.625,-0.00769,0.773193,0,0,0
223,10.21374,2.061069,-13.496183,-0.627197,-0.01123,0.77478,0,0,0
226,9.053435,1.755725,-13.541985,-0.630737,-0.005493,0.775391,0,0,0
229,9.099237,1.526718,-13.450382,-0.63147,-0.015015,0.77771,0,0,0
232,9.374046,1.114504,-13.694656,-0.631714,-0.013062,0.777588,0,0,0
235,9.480916,0.641221,-13.587786,-0.62854,-0.012817,0.774658,0,0,0
238,9.175573,0.396947,-13.419847,-0.630249,-0.012939,0.774048,0,0,0
241,8.763359,0.412214,-13.175573,-0.627686,-0.020508,0.778198,0,0,0
244,8.412214,0.412214,-12.900763,-0.627319,-0.023071,0.780518,0,0,0
247,8.580153,0.167939,-12.564885,-0.625122,-0.023682,0.779541,0,0,0
250,9.465649,-0.015267,-12.48855,-0.622559,-0.025513,0.776855,0,0,0
253,9.480916,-0.152672,-12.427481,-0.626099,-0.017822,0.778076,0,0,0
0,9.007634,-0.045802,-12.061069,-0.625732,-0.021118,0.780518,0,0,0
3,8.992366,-0.137405,-11.938931,-0.626709,-0.023315,0.774902,0,0,0
6,9.145038,-0.305344,-11.633588,-0.621704,-0.025635,0.778931,0,0,0
9,9.572519,-0.534351,-11.587786,-0.627197,-0.02124,0.778198,0,0,0
12,9.557252,-0.59542,-11.343511,-0.622925,-0.020142,0.774902,0,0,0
15,9.801527,-0.442748,-11.312977,-0.624146,-0.025024,0.779663,0,0,0
18,9.984733,-0.473282,-10.992366,-0.626709,-0.022583,0.781494,0,0,0
21,10.076336,-0.076336,-11.358779,-0.626465,-0.015991,0.778442,0,0,0
24,9.954198,0.824427,-11.603053,-0.619263,-0.015259,0.776733,0,0,0
27,10.076336,-0.030534,-10.732824,-0.629517,-0.026123,0.780029,0,0,0
30,9.923664,0.351145,-11.267176,-0.625732,-0.01709,0.779297,0,0,0
33,9.572519,-0.274809,-10.549618,-0.629883,-0.022461,0.772339,0,0,0
36,9.450382,0.610687,-11.129771,-0.628784,-0.013916,0.782593,0,0,0
39,9.40458,0.427481,-11.007634,-0.62207,-0.016724,0.777466,0,0,0
42,9.129771,0.977099,-10.931298,-0.622437,-0.018921,0.784058,0,0,0
45,9.648855,0.70229,-11.129771,-0.623779,-0.02124,0.778687,0,0,0
48,9.664122,0.824427,-11.022901,-0.623779,-0.018433,0.779297,0,0,0
51,9.236641,0.900763,-10.717557,-0.628296,-0.018555,0.778198,0,0,0
54,9.389313,0.824427,-10.625954,-0.625488,-0.018677,0.78064,0,0,0
57,9.267176,1.083969,-10.717557,-0.624023,-0.01416,0.773438,0,0,0
60,9.038168,1.083969,-10.519084,-0.625122,-0.01355,0.779907,0,0,0
63,8.900763,1.007634,-10.656489,-0.622559,-0.00769,0.779053,0,0,0
66,8.198473,1.145038,-10.900763,-0.630005,-0.010376,0.773193,0,0,0
69,7.832061,1.160305,-10.839695,-0.626221,-0.015747,0.779541,0,0,0
72,7.328244,1.129771,-10.519084,-0.626709,-0.025635,0.779419,0,0,0
75,7.572519,0.992366,-10.198473,-0.627441,-0.027832,0.778564,0,0,0
78,8.10687,1.068702,-9.664122,-0.628906,-0.030029,0.779175,0,0,0
81,8.580153,1.099237,-9.541985,-0.626221,-0.028198,0.779907,0,0,0
84,8.671756,1.114504,-9.129771,-0.627197,-0.023682,0.779419,0,0,0
87,9.038168,1.083969,-8.900763,-0.629517,-0.02063,0.775269,0,0,0
90,9.083969,1.022901,-8.778626,-0.622437,-0.021484,0.774292,0,0,0
93,8.687023,1.053435,-8.519084,-0.628784,-0.015625,0.778076,0,0,0
96,8.274809,1.068702,-8.458015,-0.630371,-0.015625,0.776855,0,0,0
99,8.366412,0.931298,-8.458015,-0.62854,-0.017578,0.780396,0,0,0
102,8.671756,0.931298,-8.229008,-0.628662,-0.020508,0.778687,0,0,0
105,8.931298,0.854962,-8.198473,-0.625977,-0.019165,0.779053,0,0,0
108,8.916031,0.839695,-8,-0.626099,-0.019409,0.776489,0,0,0
111,9.038168,0.839695,-7.862595,-0.626709,-0.019531,0.778076,0,0,0
114,8.70229,0.80916,-7.816794,-0.62793,-0.019043,0.777344,0,0,0
117,8.717557,0.946565,-7.618321,-0.628052,-0.015137,0.773804,0,0,0
120,8.48855,0.885496,-7.557252,-0.63269,-0.010132,0.775391,0,0,0
123,8.259542,0.793893,-7.51145,-0.62561,-0.016479,0.775513,0,0,0
126,8.412214,0.80916,-7.419847,-0.625977,-0.020142,0.775146,0,0,0
129,8.381679,0.763359,-7.29771,-0.625122,-0.016235,0.772827,0,0,0
132,8.137405,0.854962,-7.175573,-0.62793,-0.016724,0.774048,0,0,0
135,8.045802,0.641221,-7.114504,-0.629272,-0.02063,0.774414,0,0,0
138,8.259542,0.59542,-7.038168,-0.630127,-0.019043,0.772583,0,0,0
141,8.198473,0.625954,-7.022901,-0.62915,-0.018433,0.7771,0,0,0
144,8.274809,0.244275,-7.053435,-0.631226,-0.020386,0.77478,0,0,0
147,8.259542,0.198473,-7.114504,-0.62793,-0.020874,0.773315,0,0,0
150,8.076336,0.167939,-7.038168,-0.632324,-0.020142,0.775024,0,0,0
153,7.770992,-0.015267,-7.114504,-0.630127,-0.016235,0.771362,0,0,0
156,7.755725,-0.045802,-7.236641,-0.630005,-0.017456,0.773804,0,0,0
159,7.755725,-0.21374,-7.312977,-0.632568,-0.016724,0.773926,0,0,0
162,7.679389,-0.366412,-7.450382,-0.630249,-0.014404,0.773438,0,0,0
165,8.274809,-0.580153,-7.633588,-0.634277,-0.017334,0.772705,0,0,0
168,8.183206,-0.778626,-7.770992,-0.630859,-0.014893,0.771729,0,0,0
171,8.564885,-0.931298,-8,-0.628052,-0.013672,0.774414,0,0,0
174,8.641221,-1.068702,-8.21374,-0.633545,-0.012329,0.776001,0,0,0
177,8.625954,-1.160305,-8.534351,-0.630127,-0.011597,0.774048,0,0,0
180,8.183206,-1.251908,-8.580153,-0.632324,-0.009766,0.772217,0,0,0
183,7.740458,-1.358779,-8.763359,-0.62854,-0.012817,0.776123,0,0,0
186,7.358779,-1.465649,-8.916031,-0.628906,-0.011597,0.776367,0,0,0
189,7.480916,-1.755725,-8.931298,-0.630005,-0.014771,0.775635,0,0,0
192,7.358779,-2.015267,-8.900763,-0.62793,-0.012329,0.775513,0,0,0
195,6.992366,-2.335878,-9.022901,-0.627441,-0.012207,0.776978,0,0,0
198,6.687023,-2.519084,-8.946565,-0.630859,-0.009644,0.777344,0,0,0
201,6.076336,-2.793893,-9.007634,-0.628784,-0.00769,0.776123,0,0,0
204,5.984733,-3.206107,-8.824427,-0.626587,-0.019775,0.780029,0,0,0
207,6.045802,-3.099237,-9.007634,-0.626099,-0.016724,0.780396,0,0,0
210,5.832061,-2.625954,-9.267176,-0.625244,-0.005859,0.776855,0,0,0
213,5.664122,-2.396947,-9.480916,-0.619751,-0.012817,0.772461,0,0,0
216,5.312977,-3.221374,-9.007634,-0.633545,-0.010986,0.780273,0,0,0
219,5.343511,-3.206107,-9.251908,-0.619751,-0.021729,0.772217,0,0,0
222,5.633588,-2.900763,-9.801527,-0.626099,-0.013184,0.777222,0,0,0
225,5.832061,-2.503817,-9.694656,-0.619995,-0.018555,0.780029,0,0,0
228,5.435115,-0.793893,-10.732824,-0.624023,-0.005981,0.791504,0,0,0
231,5.358779,-1.847328,-10.030534,-0.625122,-0.020752,0.786133,0,0,0
234,6.229008,-1.618321,-9.633588,-0.624878,-0.028076,0.783691,0,0,0
237,6.839695,-1.770992,-9.251908,-0.610229,-0.030029,0.768921,0,0,0
240,6.916031,-0.320611,-10.076336,-0.624512,-0.009399,0.783569,0,0,0
243,6.183206,-0.442748,-9.923664,-0.626343,-0.010742,0.783813,0,0,0
246,6.381679,-0.427481,-9.19084,-0.620239,-0.028076,0.781128,0,0,0
249,6.80916,-0.580153,-9.114504,-0.625977,-0.022339,0.777954,0,0,0
252,7.022901,0.198473,-9.29771,-0.624023,-0.017212,0.778198,0,0,0
255,6.80916,0.396947,-9.007634,-0.62207,-0.018799,0.775391,0,0,0
2,6.763359,1.099237,-9.40458,-0.623413,-0.012451,0.780518,0,0,0
5,6.687023,1.053435,-9.267176,-0.624268,-0.012329,0.781738,0,0,0
8,7.068702,0.183206,-8.59542,-0.627197,-0.03125,0.778442,0,0,0
11,7.618321,0.412214,-8.854962,-0.621216,-0.022827,0.779419,0,0,0
14,7.496183,0.641221,-8.992366,-0.623291,-0.014404,0.779663,0,0,0
17,7.358779,0.778626,-9.221374,-0.628174,-0.014648,0.775635,0,0,0
20,7.022901,0.671756,-9.19084,-0.62561,-0.017334,0.77478,0,0,0
23,7.19084,0.610687,-9.175573,-0.624756,-0.015747,0.77771,0,0,0
26,7.282443,0.48855,-9.328244,-0.630615,-0.010498,0.776733,0,0,0
29,6.977099,0.473282,-9.328244,-0.628418,-0.013672,0.774292,0,0,0
32,6.80916,0.59542,-9.801527,-0.626343,-0.012085,0.7771,0,0,0
35,6.80916,0.412214,-9.648855,-0.629028,-0.0177,0.780884,0,0,0
38,7.114504,0.305344,-9.480916,-0.630493,-0.024658,0.780396,0,0,0
41,7.374046,0.122137,-9.541985,-0.628174,-0.023071,0.778198,0,0,0
44,7.480916,0.229008,-9.450382,-0.629395,-0.022583,0.776733,0,0,0
47,7.465649,0.229008,-9.389313,-0.626343,-0.018433,0.777954,0,0,0
50,7.480916,0.366412,-9.51145,-0.624268,-0.014771,0.778564,0,0,0
53,7.328244,0.305344,-9.29771,-0.626831,-0.014038,0.7771,0,0,0
56,7.022901,0.549618,-9.679389,-0.624146,-0.008545,0.775391,0,0,0
59,6.274809,0.80916,-9.984733,-0.626953,-0.006226,0.777344,0,0,0
62,6.259542,0.625954,-10.015267,-0.627563,-0.013428,0.778076,0,0,0
65,6.381679,0.564885,-10.061069,-0.62793,-0.019165,0.780884,0,0,0
68,6.366412,0.59542,-10.152672,-0.622437,-0.020996,0.778442,0,0,0
71,6.778626,0.580153,-10.061069,-0.623657,-0.023682,0.776123,0,0,0
74,7.19084,0.625954,-10.015267,-0.628296,-0.021362,0.78064,0,0,0
77,7.419847,0.778626,-10.015267,-0.625854,-0.019409,0.778442,0,0,0
80,7.587786,0.793893,-10.152672,-0.623413,-0.019653,0.778809,0,0,0
83,7.694656,0.732824,-10.167939,-0.627808,-0.015381,0.779785,0,0,0
86,7.694656,0.839695,-10.229008,-0.625244,-0.016724,0.777954,0,0,0
89,7.709924,0.80916,-10.366412,-0.624146,-0.013794,0.779419,0,0,0
92,7.78626,0.748092,-10.549618,-0.629517,-0.015137,0.776855,0,0,0
95,7.923664,0.656489,-10.687023,-0.626221,-0.016479,0.778687,0,0,0
98,7.923664,0.671756,-10.870229,-0.630127,-0.013794,0.774292,0,0,0
101,7.801527,0.824427,-10.870229,-0.626831,-0.018066,0.778564,0,0,0
104,7.847328,0.549618,-11.053435,-0.628174,-0.014038,0.776001,0,0,0
107,7.725191,0.412214,-11.221374,-0.628418,-0.016724,0.776733,0,0,0
110,7.938931,0.351145,-11.175573,-0.624268,-0.018066,0.775269,0,0,0
113,7.923664,0.351145,-11.19084,-0.625,-0.016968,0.776489,0,0,0
116,7.984733,0.412214,-11.19084,-0.627686,-0.017212,0.778076,0,0,0
119,7.908397,0.366412,-11.343511,-0.624023,-0.016724,0.776489,0,0,0
122,8.045802,0.244275,-11.221374,-0.625244,-0.021729,0.776855,0,0,0
125,8.717557,-0.259542,-10.59542,-0.630615,-0.027344,0.780762,0,0,0
128,9.374046,-0.091603,-10.732824,-0.627441,-0.024902,0.77832,0,0,0
131,9.206107,0.458015,-10.80916,-0.626099,-0.013184,0.777954,0,0,0
134,8.80916,-0.458015,-10.244275,-0.62915,-0.014771,0.776611,0,0,0
137,8.916031,-0.366412,-10.59542,-0.623901,-0.018555,0.775757,0,0,0
140,8.656489,0.152672,-11.19084,-0.622192,-0.012085,0.771851,0,0,0
143,8.412214,-0.290076,-10.229008,-0.641602,-0.019409,0.796387,0,0,0
146,9.007634,0.198473,-10.671756,-0.616333,-0.03064,0.779663,0,0,0
149,8.793893,1.358779,-11.694656,-0.635498,-0.005371,0.787231,0,0,0
152,8.305344,0.763359,-10.824427,-0.621948,-0.023071,0.776611,0,0,0
155,8.946565,-0.412214,-9.40458,-0.625,-0.045898,0.774292,0,0,0
158,9.877863,0.442748,-10.290076,-0.627686,-0.023193,0.782715,0,0,0
161,10.229008,0.763359,-10.641221,-0.619507,-0.014282,0.774902,0,0,0
164,9.89313,0.961832,-10.580153,-0.623169,-0.010986,0.777222,0,0,0
167,9.877863,1.038168,-10.335878,-0.626099,-0.020874,0.781494,0,0,0
170,10.625954,1.145038,-10.839695,-0.625366,-0.019409,0.776245,0,0,0
173,10.427481,1.450382,-10.931298,-0.626831,-0.01355,0.778564,0,0,0
176,10.259542,1.587786,-10.931298,-0.628784,-0.022705,0.776489,0,0,0
179,9.938931,2.091603,-11.267176,-0.622559,-0.017944,0.77771,0,0,0
182,9.572519,2.412214,-11.358779,-0.622192,-0.017578,0.780151,0,0,0
185,10.030534,2.687023,-11.572519,-0.630371,-0.01416,0.779175,0,0,0
188,10.183206,1.984733,-11.465649,-0.623169,-0.014771,0.772461,0,0,0
191,9.251908,1.954198,-11.419847,-0.624634,-0.014038,0.770874,0,0,0
194,9.19084,1.847328,-11.541985,-0.630127,-0.015991,0.777588,0,0,0
197,9.389313,1.648855,-11.78626,-0.628052,-0.017334,0.775513,0,0,0
200,9.908397,1.541985,-11.877863,-0.627197,-0.014771,0.775513,0,0,0
203,9.709924,1.343511,-11.923664,-0.62793,-0.015503,0.774414,0,0,0
206,9.572519,1.435115,-12.183206,-0.634277,-0.015259,0.77356,0,0,0
209,9.358779,1.618321,-12.396947,-0.629639,-0.013672,0.776123,0,0,0
212,8.900763,1.633588,-12.641221,-0.629639,-0.013062,0.775269,0,0,0
215,9.038168,1.618321,-12.900763,-0.62915,-0.013184,0.776367,0,0,0
218,9.068702,1.389313,-13.007634,-0.627686,-0.013916,0.774536,0,0,0
221,9.160305,1.282443,-13.129771,-0.624756,-0.016113,0.779053,0,0,0
224,8.900763,1.312977,-13.465649,-0.626709,-0.008789,0.775879,0,0,0
227,8.839695,1.267176,-13.954198,-0.627563,-0.008667,0.774536,0,0,0
230,8.137405,1.251908,-13.923664,-0.629639,-0.010376,0.775879,0,0,0
233,7.450382,1.022901,-14.076336,-0.630249,-0.015991,0.776367,0,0,0
236,7.19084,1.068702,-14.045802,-0.630859,-0.018188,0.773926,0,0,0
239,8.244275,0.961832,-13.832061,-0.629883,-0.023804,0.776123,0,0,0
242,8.625954,0.839695,-13.954198,-0.629395,-0.018188,0.77478,0,0,0
245,9.038168,0.900763,-14,-0.630859,-0.017822,0.776245,0,0,0
248,9.175573,0.900763,-14.152672,-0.625854,-0.015747,0.776123,0,0,0
251,9.343511,1.007634,-14.305344,-0.628418,-0.015991,0.77417,0,0,0
254,9.603053,0.656489,-13.801527,-0.628906,-0.024414,0.78186,0,0,0
1,9.938931,0.931298,-14.320611,-0.622437,-0.018311,0.771729,0,0,0
4,8.900763,1.099237,-14.305344,-0.631592,-0.01001,0.781006,0,0,0
7,7.984733,0.381679,-13.923664,-0.634277,-0.019653,0.776489,0,0,0
10,9.007634,0.870229,-14.015267,-0.621338,-0.027588,0.77832,0,0,0
13,9.89313,-0.259542,-13.343511,-0.628662,-0.03064,0.773926,0,0,0
16,10.351145,0.274809,-13.847328,-0.625854,-0.01416,0.782227,0,0,0
19,10.152672,0.396947,-14.137405,-0.627319,-0.005371,0.772217,0,0,0
22,9.450382,0.534351,-14.152672,-0.626953,-0.009644,0.777588,0,0,0
25,8.870229,0.656489,-14.519084,-0.628784,-0.013062,0.774292,0,0,0
28,8.442748,0.656489,-14.305344,-0.63562,-0.021362,0.780762,0,0,0
31,8.427481,0.564885,-14.122137,-0.629761,-0.025635,0.773682,0,0,0
34,8.687023,0.824427,-13.78626,-0.625366,-0.027344,0.777466,0,0,0
37,8.793893,1.068702,-13.984733,-0.626587,-0.022095,0.777832,0,0,0
40,8.641221,1.312977,-13.938931,-0.625122,-0.022095,0.777222,0,0,0
43,9.19084,1.328244,-13.51145,-0.630249,-0.033325,0.778076,0,0,0
46,10.21374,1.221374,-13.083969,-0.627319,-0.0354,0.777832,0,0,0
49,11.129771,1.526718,-13.114504,-0.626831,-0.031616,0.773315,0,0,0
52,11.343511,1.770992,-13.068702,-0.627197,-0.022217,0.779053,0,0,0
55,11.236641,1.099237,-12.381679,-0.632324,-0.018066,0.775879,0,0,0
58,11.541985,1.053435,-12.320611,-0.633301,-0.019287,0.774414,0,0,0
61,10.900763,0.992366,-12.549618,-0.630615,-0.010986,0.77063,0,0,0
64,10.564885,0.854962,-12.70229,-0.62793,-0.008301,0.778076,0,0,0
67,9.847328,1.068702,-12.824427,-0.628906,-0.008301,0.771118,0,0,0
70,9.465649,0.732824,-12.824427,-0.633667,-0.012939,0.77771,0,0,0
73,8.931298,0.549618,-12.931298,-0.629028,-0.008179,0.770386,0,0,0
76,8.748092,0.259542,-12.793893,-0.627319,-0.008423,0.778809,0,0,0
79,8.320611,-0.061069,-12.80916,-0.628906,-0.012451,0.772705,0,0,0
82,7.847328,-0.137405,-13.19084,-0.630737,-0.006836,0.778809,0,0,0
85,6.824427,0.229008,-13.312977,-0.636597,-0.012695,0.778931,0,0,0
88,6.70229,0.290076,-13.465649,-0.622437,-0.021118,0.773315,0,0,0
91,6.717557,-0.076336,-12.80916,-0.626099,-0.027344,0.765381,0,0,0
94,6.763359,0,-12.442748,-0.623413,-0.031006,0.772461,0,0,0
97,6.763359,0.198473,-12.030534,-0.635742,-0.021362,0.779419,0,0,0
100,6.824427,-0.21374,-11.801527,-0.627075,-0.029785,0.774292,0,0,0
103,6.916031,-0.442748,-11.099237,-0.623535,-0.025757,0.777466,0,0,0
106,6.641221,0.59542,-11.221374,-0.625977,-0.022217,0.783569,0,0,0
109,6.748092,1.328244,-11.465649,-0.619629,-0.018677,0.7771,0,0,0
112,6.80916,1.282443,-11.206107,-0.623779,-0.020264,0.779541,0,0,0
115,6.687023,1.435115,-10.671756,-0.624023,-0.025269,0.783203,0,0,0
118,6.854962,1.419847,-10.290076,-0.62146,-0.026367,0.777832,0,0,0
121,7.694656,1.832061,-10.21374,-0.619751,-0.027344,0.778076,0,0,0
124,7.648855,2.061069,-10.122137,-0.62793,-0.024292,0.775757,0,0,0
127,7.358779,2.305344,-9.603053,-0.622314,-0.024658,0.779663,0,0,0
130,8.061069,2.748092,-9.526718,-0.625366,-0.027344,0.783325,0,0,0
133,8.10687,2.473282,-8.961832,-0.624146,-0.029175,0.77832,0,0,0
136,8.259542,2.839695,-8.80916,-0.622192,-0.025146,0.781372,0,0,0
139,8.580153,2.977099,-8.473282,-0.623535,-0.025879,0.781494,0,0,0
142,8.763359,3.175573,-8.122137,-0.623779,-0.028931,0.779297,0,0,0
145,9.068702,3.618321,-7.694656,-0.623169,-0.032593,0.779663,0,0,0
148,10.015267,3.801527,-7.572519,-0.62085,-0.031006,0.781494,0,0,0
151,10.641221,3.862595,-7.251908,-0.62854,-0.027954,0.781616,0,0,0
154,11.129771,3.770992,-6.961832,-0.626221,-0.028198,0.77832,0,0,0
157,11.114504,4.137405,-6.687023,-0.625732,-0.025635,0.77771,0,0,0
160,11.099237,4.290076,-6.351145,-0.628052,-0.030762,0.775391,0,0,0
163,11.480916,4.305344,-5.923664,-0.629395,-0.029907,0.775757,0,0,0
166,12.061069,4.167939,-5.847328,-0.629761,-0.024902,0.774292,0,0,0
169,12.21374,4.183206,-5.465649,-0.629272,-0.027344,0.774902,0,0,0
172,12.473282,4.183206,-5.29771,-0.631714,-0.022949,0.77478,0,0,0
175,13.053435,4.030534,-5.053435,-0.633179,-0.025879,0.771851,0,0,0
178,12.824427,3.984733,-4.916031,-0.636108,-0.023193,0.769531,0,0,0
181,13.053435,3.679389,-4.748092,-0.636719,-0.023804,0.768066,0,0,0
184,12.916031,3.618321,-4.458015,-0.632935,-0.023193,0.77063,0,0,0
187,12.885496,3.664122,-4.320611,-0.633545,-0.020874,0.771118,0,0,0
190,12.763359,3.465649,-4.259542,-0.634766,-0.020508,0.768555,0,0,0
193,12.381679,3.419847,-4.152672,-0.639282,-0.019775,0.770874,0,0,0
196,12.534351,3.572519,-4.641221,-0.634766,-0.015625,0.764648,0,0,0
199,12.381679,3.068702,-4.122137,-0.639282,-0.017944,0.772095,0,0,0
202,12.763359,2.732824,-4.351145,-0.634644,-0.020996,0.771362,0,0,0
205,13.099237,2.992366,-4.839695,-0.63562,-0.018311,0.773804,0,0,0
208,13.343511,2.091603,-3.938931,-0.642944,-0.023682,0.773071,0,0,0
211,14.152672,1.587786,-3.832061,-0.634277,-0.023438,0.768066,0,0,0
214,14.244275,1.664122,-4.244275,-0.636841,-0.007324,0.768311,0,0,0
217,13.541985,1.129771,-4.59542,-0.639404,-0.012451,0.763916,0,0,0
220,12.458015,1.053435,-4.580153,-0.636841,-0.013916,0.768677,0,0,0
223,11.465649,1.068702,-4.625954,-0.641846,-0.010254,0.766602,0,0,0
226,11.221374,0.870229,-4.70229,-0.637817,-0.016724,0.765381,0,0,0
229,11.160305,0.610687,-4.824427,-0.63562,-0.015381,0.769287,0,0,0
232,10.961832,0.290076,-4.961832,-0.637207,-0.009888,0.764771,0,0,0
235,10.442748,0.152672,-5.29771,-0.636841,-0.006592,0.76709,0,0,0
238,9.740458,0.167939,-5.664122,-0.636841,-0.008301,0.771729,0,0,0
241,9.419847,-0.015267,-5.78626,-0.638428,-0.008545,0.770508,0,0,0
244,8.900763,-0.290076,-6.183206,-0.637695,-0.004028,0.771606,0,0,0
247,8.778626,-0.870229,-6.229008,-0.635376,-0.007812,0.765747,0,0,0
250,8.687023,-1.022901,-6.59542,-0.633301,-0.008423,0.767334,0,0,0
253,8.137405,-0.900763,-7.19084,-0.635376,0.002686,0.767944,0,0,0
0,7.465649,-1.496183,-7.419847,-0.642944,0.004028,0.772949,0,0,0
3,6.870229,-1.969466,-7.526718,-0.633301,-0.008911,0.77063,0,0,0
6,6.885496,-2.183206,-7.969466,-0.631714,-0.009888,0.768799,0,0,0
9,6.671756,-2.244275,-8.167939,-0.636475,-0.007935,0.769531,0,0,0
12,6.48855,-2.625954,-8.244275,-0.632202,-0.012085,0.769531,0,0,0
15,6.900763,-2.977099,-8.610687,-0.635742,-0.010254,0.768311,0,0,0
18,7.007634,-3.29771,-8.687023,-0.633423,-0.014038,0.768066,0,0,0
21,6.916031,-3.389313,-8.916031,-0.633179,-0.008545,0.77063,0,0,0
24,6.870229,-3.480916,-9.19084,-0.633057,-0.011108,0.772827,0,0,0
27,6.320611,-3.78626,-9.328244,-0.633789,-0.010498,0.771606,0,0,0
30,6.366412,-3.78626,-9.664122,-0.633545,-0.009766,0.77002,0,0,0
33,6.320611,-3.969466,-9.770992,-0.631104,-0.012695,0.768677,0,0,0
36,5.954198,-4.045802,-9.984733,-0.630615,-0.010864,0.77063,0,0,0
39,5.557252,-4.152672,-9.969466,-0.630981,-0.014893,0.772461,0,0,0
42,5.725191,-4.137405,-10.259542,-0.634888,-0.014282,0.773315,0,0,0
45,5.557252,-4.274809,-10.305344,-0.635376,-0.014648,0.769653,0,0,0
48,6.045802,-4.396947,-10.305344,-0.633179,-0.02002,0.773438,0,0,0
51,6.534351,-4.70229,-10.412214,-0.631958,-0.017456,0.771729,0,0,0
54,6.580153,-4.732824,-10.381679,-0.632812,-0.015991,0.771606,0,0,0
57,6.503817,-4.732824,-10.473282,-0.629639,-0.013916,0.773438,0,0,0
60,6.21374,-4.854962,-10.412214,-0.630493,-0.015381,0.771362,0,0,0
63,6.564885,-4.946565,-10.442748,-0.631592,-0.020142,0.77356,0,0,0
66,6.564885,-5.022901,-10.442748,-0.632202,-0.018921,0.772095,0,0,0
69,6.671756,-5.022901,-10.259542,-0.631958,-0.019043,0.77417,0,0,0
72,6.80916,-4.992366,-10.412214,-0.629395,-0.020874,0.772217,0,0,0
75,7.450382,-5.206107,-10.473282,-0.631104,-0.018799,0.773804,0,0,0
78,7.862595,-5.358779,-10.396947,-0.633545,-0.017944,0.776611,0,0,0
81,8.137405,-5.480916,-10.351145,-0.631226,-0.015381,0.775757,0,0,0
84,7.954198,-5.603053,-9.923664,-0.629883,-0.020386,0.776978,0,0,0
87,8.015267,-5.725191,-10.10687,-0.630981,-0.010376,0.775269,0,0,0
90,7.435115,-5.374046,-10.717557,-0.627197,0.000854,0.777344,0,0,0
93,7.053435,-6.167939,-10.091603,-0.636719,-0.006958,0.78125,0,0,0
96,6.839695,-6.59542,-9.832061,-0.624512,-0.019531,0.77478,0,0,0
99,6.70229,-6.183206,-10.503817,-0.630249,-0.004761,0.782471,0,0,0
102,6.167939,-6.717557,-10.335878,-0.628174,-0.001099,0.776367,0,0,0
105,6.167939,-7.251908,-10.229008,-0.625854,-0.016357,0.768555,0,0,0
108,6.10687,-6.259542,-10.259542,-0.630249,-0.014526,0.783081,0,0,0
111,6.091603,-7.145038,-10.244275,-0.630859,-0.019897,0.772949,0,0,0
114,5.954198,-6.458015,-10.763359,-0.626709,-0.009033,0.775757,0,0,0
117,5.603053,-6.442748,-10.549618,-0.627319,-0.010864,0.779663,0,0,0
120,5.664122,-6.351145,-10.366412,-0.625854,-0.013184,0.776489,0,0,0
123,6.091603,-6.519084,-10.641221,-0.623291,-0.0177,0.774048,0,0,0
126,6.229008,-5.954198,-11.145038,-0.625854,-0.007568,0.777954,0,0,0
129,5.496183,-5.78626,-10.946565,-0.623657,-0.010742,0.778442,0,0,0
132,5.267176,-5.282443,-11.312977,-0.625244,-0.012207,0.779053,0,0,0
135,4.977099,-5.114504,-11.358779,-0.624146,-0.014893,0.777466,0,0,0
138,4.687023,-5.129771,-11.435115,-0.62207,-0.01123,0.773804,0,0,0
141,4.70229,-5.175573,-11.099237,-0.621826,-0.016602,0.781006,0,0,0
144,4.549618,-4.656489,-11.312977,-0.622803,-0.018799,0.77832,0,0,0
147,4.778626,-4.290076,-11.862595,-0.618164,-0.016602,0.77771,0,0,0
150,4.534351,-4.366412,-11.40458,-0.624512,-0.018066,0.783203,0,0,0
153,4.656489,-4.259542,-11.312977,-0.62439,-0.015625,0.777954,0,0,0
156,4.198473,-4.015267,-11.389313,-0.62439,-0.015625,0.774292,0,0,0
159,4.167939,-3.618321,-11.572519,-0.624634,-0.015625,0.778931,0,0,0
162,3.679389,-3.51145,-11.435115,-0.625244,-0.013062,0.777954,0,0,0
165,3.419847,-3.633588,-11.221374,-0.622925,-0.016235,0.778687,0,0,0
168,3.419847,-3.480916,-11.435115,-0.619507,-0.016968,0.78186,0,0,0
171,3.221374,-3.236641,-11.679389,-0.623291,-0.008667,0.777832,0,0,0
174,3.007634,-3.221374,-11.923664,-0.626831,-0.012695,0.776978,0,0,0
177,3.282443,-3.51145,-12.10687,-0.626831,-0.016968,0.78064,0,0,0
180,3.679389,-3.496183,-12.290076,-0.623047,-0.018921,0.777588,0,0,0
183,3.969466,-3.51145,-12.274809,-0.623657,-0.019653,0.778564,0,0,0
186,4.259542,-3.496183,-12.59542,-0.623535,-0.018311,0.776245,0,0,0
189,4.183206,-3.541985,-12.244275,-0.621704,-0.017944,0.779785,0,0,0
192,4.076336,-3.526718,-12.183206,-0.625244,-0.021362,0.778442,0,0,0
195,4.030534,-3.312977,-12.137405,-0.62854,-0.018555,0.777222,0,0,0
198,4.030534,-3.129771,-12.061069,-0.625122,-0.021362,0.77771,0,0,0
201,3.526718,-2.946565,-11.862595,-0.625732,-0.020996,0.780273,0,0,0
204,3.358779,-2.885496,-11.801527,-0.626221,-0.020142,0.779785,0,0,0
207,3.358779,-2.824427,-11.709924,-0.625122,-0.023926,0.781128,0,0,0
210,3.007634,-2.717557,-11.328244,-0.627319,-0.022827,0.774414,0,0,0
213,2.70229,-2.442748,-11.022901,-0.624268,-0.024414,0.780884,0,0,0
216,3.099237,-2.396947,-10.778626,-0.62561,-0.026123,0.779907,0,0,0
219,3.923664,-2.320611,-10.793893,-0.624268,-0.021362,0.779175,0,0,0
222,4.412214,-2.10687,-10.793893,-0.625,-0.02417,0.780029,0,0,0
225,5.129771,-2.320611,-10.70229,-0.622559,-0.02478,0.779419,0,0,0
228,5.29771,-2.244275,-10.48855,-0.623657,-0.022583,0.779419,0,0,0
231,5.175573,-1.832061,-10.21374,-0.624023,-0.026978,0.775635,0,0,0
234,5.267176,-1.725191,-10.030534,-0.623169,-0.025391,0.777954,0,0,0
237,5.450382,-1.480916,-9.587786,-0.623535,-0.025391,0.778809,0,0,0
240,5.89313,-1.526718,-9.51145,-0.622925,-0.02417,0.777588,0,0,0
243,6.045802,-1.496183,-9.480916,-0.619629,-0.021973,0.776978,0,0,0
246,5.694656,-1.267176,-9.312977,-0.625732,-0.019287,0.775024,0,0,0
249,5.541985,-1.022901,-9.29771,-0.628174,-0.022705,0.777466,0,0,0
252,5.236641,-1.267176,-8.992366,-0.624146,-0.021606,0.779175,0,0,0
255,5.419847,-1.145038,-9.099237,-0.628174,-0.024048,0.775146,0,0,0
2,5.725191,-1.435115,-9.022901,-0.626709,-0.021973,0.773315,0,0,0
5,5.877863,-1.587786,-9.236641,-0.627075,-0.018066,0.776367,0,0,0
8,5.480916,-1.496183,-9.282443,-0.626587,-0.021729,0.777344,0,0,0
11,5.114504,-1.816794,-9.175573,-0.625854,-0.019775,0.774048,0,0,0
14,4.870229,-1.709924,-9.374046,-0.627563,-0.019287,0.77478,0,0,0
17,4.519084,-1.78626,-9.374046,-0.626099,-0.018677,0.771118,0,0,0
20,4.229008,-2.076336,-9.343511,-0.630005,-0.022705,0.776733,0,0,0
23,4.229008,-2.335878,-9.175573,-0.626343,-0.021362,0.773682,0,0,0
26,4.564885,-2.396947,-9.450382,-0.626343,-0.021606,0.776489,0,0,0
29,4.748092,-2.931298,-9.648855,-0.630127,-0.014771,0.770508,0,0,0
32,4.732824,-2.778626,-10.076336,-0.635742,-0.012573,0.78125,0,0,0
35,4.687023,-3.145038,-10,-0.620605,-0.020386,0.776367,0,0,0
38,4.396947,-2.732824,-10.366412,-0.622803,-0.020142,0.77771,0,0,0
41,4.167939,-3.40458,-10.335878,-0.637817,-0.029541,0.771484,0,0,0
44,4.412214,-3.664122,-10.458015,-0.629395,-0.021484,0.776855,0,0,0
47,4.519084,-3.770992,-10.641221,-0.62207,-0.018433,0.774414,0,0,0
50,4.412214,-4,-10.854962,-0.62561,-0.009521,0.776001,0,0,0
53,3.664122,-4,-11.541985,-0.626831,-0.001587,0.775391,0,0,0
56,2.48855,-4.473282,-12.045802,-0.631958,-0.001343,0.770386,0,0,0
59,1.755725,-4.305344,-12.687023,-0.621216,-0.005249,0.778442,0,0,0
62,1.236641,-4.80916,-12.854962,-0.630981,-0.012939,0.77478,0,0,0
65,1.435115,-4.335878,-13.19084,-0.617432,-0.021729,0.77124,0,0,0
68,1.145038,-6.946565,-14.519084,-0.646973,0.006836,0.770996,0,0,0
71,0.839695,-6.21374,-14.351145,-0.626709,-0.012451,0.78125,0,0,0
74,0.198473,-6.198473,-14.10687,-0.624268,-0.010986,0.780029,0,0,0
77,-0.519084,-5.603053,-14.580153,-0.623047,-0.028442,0.777222,0,0,0
80,-0.946565,-4.946565,-15.633588,-0.62561,-0.01355,0.788696,0,0,0
83,-1.312977,-6.274809,-15.908397,-0.639771,-0.012085,0.79187,0,0,0
86,-1.435115,-7.435115,-15.908397,-0.618652,-0.015747,0.775757,0,0,0
89,-1.770992,-6.229008,-15.877863,-0.611816,-0.024048,0.776001,0,0,0
92,-2.244275,-7.19084,-16.610687,-0.637695,-0.015503,0.777222,0,0,0
95,-2.625954,-6,-16.244275,-0.615967,-0.029785,0.784424,0,0,0
98,-2.748092,-6.473282,-16.80916,-0.625488,-0.022217,0.786499,0,0,0
101,-2.732824,-6.351145,-16.564885,-0.625,-0.024414,0.780029,0,0,0
104,-2.290076,-6.458015,-16.274809,-0.610474,-0.029907,0.772461,0,0,0
107,-2.458015,-5.572519,-16.961832,-0.624756,-0.022461,0.786011,0,0,0
110,-2.442748,-6.122137,-16.580153,-0.623291,-0.02771,0.780396,0,0,0
113,-2.167939,-6.564885,-16.625954,-0.606079,-0.027588,0.780884,0,0,0
116,-2.305344,-6.870229,-16.854962,-0.637939,-0.023193,0.785156,0,0,0
119,-1.969466,-7.114504,-15.587786,-0.604248,-0.040771,0.776611,0,0,0
122,-1.725191,-5.068702,-16,-0.61499,-0.039673,0.788452,0,0,0
125,-1.343511,-4.671756,-15.770992,-0.625122,-0.037476,0.789551,0,0,0
128,-1.312977,-4.10687,-16.290076,-0.612671,-0.034058,0.783447,0,0,0
131,-1.160305,-4.580153,-16.442748,-0.629761,-0.022583,0.790161,0,0,0
134,-1.29771,-4.717557,-15.465649,-0.612671,-0.032837,0.786987,0,0,0
137,-1.099237,-4.580153,-15.145038,-0.619263,-0.040527,0.787109,0,0,0
140,-0.458015,-4.244275,-15.068702,-0.614136,-0.03894,0.786743,0,0,0
143,-0.290076,-3.343511,-15.099237,-0.615845,-0.036499,0.788208,0,0,0
146,0.045802,-3.618321,-14.793893,-0.617554,-0.027954,0.785767,0,0,0
149,0.412214,-3.022901,-14.335878,-0.616577,-0.034546,0.787598,0,0,0
152,0.961832,-2.778626,-14.015267,-0.606567,-0.043701,0.782471,0,0,0
155,1.389313,-2.519084,-14,-0.623169,-0.03894,0.784546,0,0,0
158,1.664122,-2.152672,-14.335878,-0.612061,-0.030762,0.785889,0,0,0
161,1.541985,-2.70229,-13.908397,-0.615967,-0.040894,0.783569,0,0,0
164,1.648855,-2.351145,-13.557252,-0.611206,-0.040649,0.790649,0,0,0
167,2.320611,-1.664122,-13.083969,-0.612305,-0.044312,0.786133,0,0,0
170,2.763359,-1.374046,-12.931298,-0.617554,-0.043091,0.780762,0,0,0
173,3.175573,-0.977099,-13.007634,-0.617676,-0.043579,0.780518,0,0,0
176,3.801527,-0.656489,-13.129771,-0.621338,-0.04126,0.78186,0,0,0
179,4.122137,-0.778626,-12.732824,-0.622192,-0.043457,0.784302,0,0,0
182,4.442748,-1.068702,-12.519084,-0.620728,-0.041138,0.783936,0,0,0
185,4.946565,-1.389313,-12.244275,-0.619385,-0.039795,0.78186,0,0,0
188,4.916031,-1.282443,-12.10687,-0.620728,-0.032837,0.781006,0,0,0
191,5.007634,-1.083969,-12.152672,-0.616089,-0.02771,0.782104,0,0,0
194,4.473282,-0.992366,-12.335878,-0.619141,-0.028076,0.782715,0,0,0
197,4.244275,-0.778626,-12.274809,-0.623047,-0.033081,0.786011,0,0,0
200,4.503817,-0.717557,-12.290076,-0.616577,-0.033936,0.782349,0,0,0
203,4.48855,-0.687023,-12.396947,-0.623535,-0.032349,0.782837,0,0,0
206,4.412214,-0.854962,-12.381679,-0.619873,-0.032959,0.779175,0,0,0
209,4.458015,-0.977099,-12.687023,-0.620605,-0.03479,0.781372,0,0,0
212,4.381679,-1.114504,-12.70229,-0.625122,-0.03186,0.781372,0,0,0
215,4.335878,-1.099237,-12.70229,-0.622559,-0.037109,0.782104,0,0,0
218,4.442748,-1.007634,-12.748092,-0.621094,-0.03064,0.783447,0,0,0
221,4.519084,-0.977099,-12.656489,-0.620728,-0.034546,0.778564,0,0,0
224,4.656489,-0.885496,-12.870229,-0.619995,-0.032837,0.780151,0,0,0
227,4.59542,-1.206107,-12.671756,-0.619019,-0.035645,0.782593,0,0,0
230,4.732824,-1.129771,-13.022901,-0.618896,-0.033936,0.780884,0,0,0
233,4.80916,-1.358779,-12.824427,-0.620483,-0.036499,0.786499,0,0,0
236,5.145038,-1.328244,-13.083969,-0.624268,-0.035034,0.787964,0,0,0
239,5.618321,-1.526718,-13.251908,-0.614868,-0.035522,0.780518,0,0,0
242,6.10687,-1.633588,-13.328244,-0.615356,-0.039062,0.778687,0,0,0
245,6.198473,-1.557252,-13.343511,-0.622925,-0.030884,0.77832,0,0,0
248,5.679389,-1.725191,-13.358779,-0.625366,-0.03186,0.780762,0,0,0
251,5.557252,-2.137405,-13.419847,-0.626099,-0.028442,0.778931,0,0,0
254,4.290076,-2.076336,-13.465649,-0.618164,-0.030884,0.781738,0,0,0
1,3.557252,-2.167939,-13.267176,-0.623291,-0.035889,0.783691,0,0,0
4,3.389313,-2.152672,-13.19084,-0.616943,-0.037109,0.781494,0,0,0
7,3.740458,-2.198473,-13.083969,-0.618164,-0.039307,0.781128,0,0,0
10,4.320611,-2.061069,-13.145038,-0.612061,-0.041504,0.780396,0,0,0
13,4.717557,-1.847328,-13.114504,-0.617188,-0.040283,0.781006,0,0,0
16,5.358779,-1.770992,-13.053435,-0.623779,-0.040527,0.784546,0,0,0
19,5.358779,-2,-12.503817,-0.620605,-0.043823,0.78186,0,0,0
22,5.740458,-1.40458,-12.335878,-0.61145,-0.048218,0.780518,0,0,0
25,5.969466,-1.709924,-12.244275,-0.616821,-0.043213,0.78064,0,0,0
28,6.198473,-1.282443,-12.427481,-0.613525,-0.040039,0.779419,0,0,0
31,5.969466,-1.633588,-12.122137,-0.621582,-0.038086,0.781006,0,0,0
34,6.305344,-1.480916,-11.770992,-0.614624,-0.044556,0.784546,0,0,0
37,6.305344,-1.099237,-11.526718,-0.616699,-0.04126,0.785767,0,0,0
40,6.381679,-0.931298,-11.51145,-0.618896,-0.039062,0.788086,0,0,0
43,6.198473,-0.961832,-11.526718,-0.617065,-0.038452,0.787476,0,0,0
46,6.641221,-0.839695,-11.389313,-0.618774,-0.043701,0.794312,0,0,0
49,6.198473,-1.007634,-11.114504,-0.617798,-0.03833,0.7854,0,0,0
52,5.969466,-0.641221,-10.931298,-0.617554,-0.040771,0.783569,0,0,0
55,6.030534,-0.244275,-11.160305,-0.614746,-0.037109,0.786011,0,0,0
58,6.366412,-0.748092,-10.977099,-0.62146,-0.036743,0.789185,0,0,0
61,6.610687,-0.473282,-11.160305,-0.613892,-0.036377,0.786255,0,0,0
64,6.70229,-0.21374,-10.717557,-0.61792,-0.040894,0.788452,0,0,0
67,6.992366,-0.290076,-10.625954,-0.617188,-0.043579,0.78186,0,0,0
70,6.59542,0.305344,-10.656489,-0.616821,-0.035522,0.787476,0,0,0
73,5.969466,0.351145,-10.061069,-0.616699,-0.045532,0.788696,0,0,0
76,6.564885,0.854962,-9.954198,-0.609009,-0.044556,0.785278,0,0,0
79,7.114504,0.946565,-9.89313,-0.616821,-0.041016,0.785889,0,0,0
82,7.129771,0.992366,-9.78626,-0.612183,-0.039307,0.784912,0,0,0
85,7.29771,1.40458,-9.679389,-0.616333,-0.039551,0.787476,0,0,0
88,7.160305,1.29771,-9.633588,-0.615356,-0.039795,0.783691,0,0,0
91,7.221374,1.618321,-9.709924,-0.613159,-0.039917,0.782837,0,0,0
94,7.083969,1.694656,-9.603053,-0.617798,-0.038086,0.778809,0,0,0
97,7.129771,1.664122,-9.541985,-0.619019,-0.040161,0.787964,0,0,0
100,7.389313,1.740458,-9.664122,-0.616577,-0.037842,0.785645,0,0,0
103,7.083969,2,-9.603053,-0.618774,-0.035889,0.784912,0,0,0
106,6.656489,2.091603,-9.709924,-0.621338,-0.037109,0.782104,0,0,0
109,6.687023,2.015267,-9.664122,-0.61853,-0.040039,0.782593,0,0,0
112,7.282443,2.091603,-9.725191,-0.620239,-0.042114,0.783813,0,0,0
115,7.862595,2.015267,-9.648855,-0.618896,-0.041748,0.780029,0,0,0
118,7.648855,2.061069,-9.541985,-0.620605,-0.039673,0.784668,0,0,0
121,7.89313,2,-9.618321,-0.620728,-0.034546,0.779907,0,0,0
124,7.648855,2.061069,-9.679389,-0.619385,-0.033813,0.780273,0,0,0
127,7.694656,2.045802,-9.709924,-0.624634,-0.034302,0.779785,0,0,0
130,7.374046,1.877863,-9.664122,-0.620117,-0.037231,0.778809,0,0,0
133,6.824427,1.877863,-9.618321,-0.619019,-0.035156,0.776489,0,0,0
136,6.778626,1.832061,-9.740458,-0.623047,-0.028809,0.78186,0,0,0
139,6.442748,1.664122,-10,-0.617554,-0.024414,0.779175,0,0,0
142,5.435115,1.526718,-10.21374,-0.619995,-0.020996,0.778076,0,0,0
145,4.870229,1.435115,-10.48855,-0.621094,-0.026855,0.779175,0,0,0
148,4.70229,1.083969,-10.687023,-0.624512,-0.036255,0.776733,0,0,0
151,4.458015,0.763359,-10.442748,-0.625,-0.042725,0.779419,0,0,0
154,4.824427,0.70229,-10.366412,-0.619141,-0.045532,0.780029,0,0,0
157,4.870229,0.503817,-10.152672,-0.624878,-0.045654,0.779907,0,0,0
160,5.19084,0.503817,-10.183206,-0.625854,-0.046143,0.777832,0,0,0
163,5.450382,0.152672,-10.122137,-0.626343,-0.049927,0.780884,0,0,0
166,5.938931,0.045802,-10,-0.624146,-0.04248,0.777588,0,0,0
169,5.877863,-0.183206,-9.954198,-0.626831,-0.037476,0.779053,0,0,0
172,5.358779,-0.290076,-10.030534,-0.623413,-0.030884,0.775635,0,0,0
175,4.839695,-0.427481,-10.152672,-0.623413,-0.03186,0.780029,0,0,0
178,4.748092,-0.610687,-9.954198,-0.626587,-0.035645,0.777466,0,0,0
181,4.671756,-0.839695,-9.755725,-0.625,-0.04248,0.780029,0,0,0
184,5.038168,-0.854962,-9.725191,-0.62146,-0.043335,0.779663,0,0,0
187,4.656489,-1.083969,-9.496183,-0.621338,-0.041626,0.776855,0,0,0
190,4.21374,-0.946565,-9.251908,-0.621704,-0.040649,0.78125,0,0,0
193,4,-1.038168,-8.854962,-0.622803,-0.0448,0.778076,0,0,0
196,4.351145,-1.129771,-8.687023,-0.624268,-0.049561,0.781372,0,0,0
199,4.671756,-1.145038,-8.320611,-0.615601,-0.049194,0.773071,0,0,0
202,5.206107,-1.129771,-8,-0.627563,-0.045044,0.781128,0,0,0
205,5.175573,-0.656489,-8,-0.610596,-0.046631,0.780029,0,0,0
208,5.389313,-0.931298,-7.496183,-0.624634,-0.048218,0.783569,0,0,0
211,5.587786,-1.068702,-7.236641,-0.61499,-0.050049,0.775024,0,0,0
214,6.290076,-0.854962,-7.145038,-0.619507,-0.046997,0.780396,0,0,0
217,6.21374,-0.946565,-6.748092,-0.624146,-0.046021,0.786987,0,0,0
220,6.244275,-1.068702,-6.671756,-0.61792,-0.045044,0.782471,0,0,0
223,6.122137,-0.656489,-6.580153,-0.617798,-0.041382,0.784058,0,0,0
226,6.167939,-1.129771,-6.229008,-0.62146,-0.043091,0.783081,0,0,0
229,6.564885,-0.732824,-6.427481,-0.618774,-0.040649,0.787231,0,0,0
232,6.458015,-0.916031,-6.183206,-0.619629,-0.041016,0.782227,0,0,0
235,6.396947,-1.267176,-5.969466,-0.62146,-0.041504,0.776123,0,0,0
238,6.229008,-0.748092,-6.076336,-0.61731,-0.036987,0.780151,0,0,0
241,6.061069,-1.083969,-5.801527,-0.623779,-0.03833,0.781982,0,0,0
244,5.801527,-0.946565,-6.061069,-0.616821,-0.037109,0.780884,0,0,0
247,5.40458,-1.145038,-5.832061,-0.626831,-0.037354,0.780762,0,0,0
250,5.496183,-1.19084,-5.755725,-0.62085,-0.042114,0.779175,0,0,0
253,5.740458,-1.343511,-5.572519,-0.615723,-0.041138,0.777588,0,0,0
0,5.480916,-0.80916,-5.862595,-0.619751,-0.035034,0.783691,0,0,0
3,5.19084,-1.312977,-5.740458,-0.613159,-0.036621,0.777954,0,0,0
6,4.977099,-1.618321,-5.923664,-0.628052,-0.035889,0.780884,0,0,0
9,4.961832,-1.541985,-5.78626,-0.61853,-0.036499,0.781006,0,0,0
12,4.793893,-1.557252,-5.740458,-0.62085,-0.043823,0.784424,0,0,0
15,4.793893,-1.465649,-6.061069,-0.618164,-0.04126,0.783569,0,0,0
18,4.931298,-1.648855,-6.076336,-0.618896,-0.037109,0.779663,0,0,0
21,4.854962,-2.305344,-5.89313,-0.629639,-0.038818,0.78186,0,0,0
24,5.29771,-2.48855,-6.091603,-0.615845,-0.036133,0.777466,0,0,0
27,4.992366,-2.458015,-5.89313,-0.619995,-0.03772,0.778931,0,0,0
30,5.29771,-2.351145,-6.305344,-0.623291,-0.040161,0.780884,0,0,0
33,5.129771,-2.503817,-6.59542,-0.623901,-0.033569,0.780396,0,0,0
36,4.748092,-3.435115,-6.305344,-0.62854,-0.034424,0.779907,0,0,0
39,4.793893,-3.770992,-6.183206,-0.623657,-0.041016,0.780762,0,0,0
42,4.519084,-3.740458,-6.122137,-0.614258,-0.043213,0.776855,0,0,0
45,4.503817,-3.587786,-6.290076,-0.625122,-0.037842,0.780151,0,0,0
48,4.335878,-3.541985,-6.717557,-0.621704,-0.032471,0.7771,0,0,0
51,4,-4.015267,-6.70229,-0.622803,-0.03479,0.780884,0,0,0
54,3.847328,-4.137405,-6.763359,-0.626465,-0.03479,0.780396,0,0,0
57,3.740458,-4.381679,-6.503817,-0.622314,-0.044434,0.77771,0,0,0
60,4.21374,-4.076336,-6.564885,-0.615723,-0.046997,0.778687,0,0,0
63,4.091603,-4.122137,-6.610687,-0.619629,-0.042603,0.781006,0,0,0
66,4.152672,-4.21374,-6.564885,-0.619507,-0.043701,0.78125,0,0,0
69,4.045802,-4.412214,-6.427481,-0.621704,-0.038696,0.784912,0,0,0
72,4.10687,-4.366412,-6.305344,-0.612183,-0.039795,0.778809,0,0,0
75,4.091603,-4.137405,-6.290076,-0.62146,-0.046265,0.781738,0,0,0
78,4.396947,-4.122137,-6.366412,-0.616699,-0.042236,0.785034,0,0,0
81,4.167939,-4.10687,-6.381679,-0.619385,-0.038086,0.789917,0,0,0
84,4.671756,-4.854962,-6.076336,-0.619751,-0.044067,0.779175,0,0,0
87,4.824427,-4.671756,-6.10687,-0.619629,-0.039917,0.783325,0,0,0
90,4.763359,-4.503817,-6.015267,-0.61438,-0.03833,0.784912,0,0,0
93,4.656489,-4.045802,-6.412214,-0.619019,-0.039185,0.782227,0,0,0
96,4.48855,-4,-6.732824,-0.61792,-0.036621,0.787231,0,0,0
99,4.412214,-4.427481,-6.59542,-0.620117,-0.044434,0.783325,0,0,0
102,4.717557,-4.824427,-6.427481,-0.617432,-0.044434,0.78479,0,0,0
105,4.870229,-4.320611,-6.305344,-0.612061,-0.042603,0.784546,0,0,0
108,5.129771,-4.351145,-6.122137,-0.620117,-0.046143,0.782959,0,0,0
111,5.145038,-3.908397,-6.381679,-0.613403,-0.039307,0.783691,0,0,0
114,5.038168,-4.366412,-6.335878,-0.622437,-0.039185,0.78479,0,0,0
117,5.053435,-4.229008,-6.381679,-0.613892,-0.043701,0.780273,0,0,0
120,5.206107,-4.10687,-6.259542,-0.619873,-0.042847,0.784302,0,0,0
123,5.282443,-4.091603,-6.259542,-0.620483,-0.044556,0.779663,0,0,0
126,5.51145,-4.122137,-6.320611,-0.617676,-0.042236,0.781494,0,0,0
129,5.664122,-4.290076,-6.290076,-0.618774,-0.04126,0.78418,0,0,0
132,5.572519,-4.259542,-6.335878,-0.614502,-0.041626,0.78418,0,0,0
135,5.587786,-3.969466,-6.473282,-0.613037,-0.036499,0.783691,0,0,0
138,5.51145,-3.938931,-6.549618,-0.614258,-0.03772,0.783691,0,0,0
141,5.358779,-3.862595,-6.916031,-0.616821,-0.036865,0.784424,0,0,0
144,5.389313,-4.10687,-7.145038,-0.617798,-0.033813,0.786011,0,0,0
147,5.312977,-4.167939,-7.19084,-0.619629,-0.036011,0.785034,0,0,0
150,5.389313,-4.320611,-7.374046,-0.615601,-0.039185,0.786743,0,0,0
153,5.740458,-4.641221,-7.40458,-0.615601,-0.039917,0.786499,0,0,0
156,6.10687,-4.59542,-7.816794,-0.614624,-0.03894,0.786987,0,0,0
159,5.877863,-4.335878,-7.847328,-0.616455,-0.035034,0.790161,0,0,0
162,5.648855,-4.458015,-7.969466,-0.614868,-0.036865,0.787354,0,0,0
165,5.450382,-4.259542,-8.10687,-0.61731,-0.03772,0.784546,0,0,0
168,5.389313,-4.412214,-8.10687,-0.610718,-0.043213,0.791626,0,0,0
171,5.633588,-4.687023,-8.167939,-0.618286,-0.039795,0.783081,0,0,0
174,5.862595,-4.503817,-8.534351,-0.617798,-0.036987,0.786987,0,0,0
177,5.832061,-4.80916,-8.48855,-0.617676,-0.03772,0.782959,0,0,0
180,5.908397,-5.053435,-8.519084,-0.615234,-0.04126,0.787964,0,0,0
183,6.183206,-4.870229,-8.748092,-0.612549,-0.035278,0.784546,0,0,0
186,6.229008,-5.083969,-8.778626,-0.616577,-0.035278,0.78479,0,0,0
189,5.78626,-4.732824,-9.053435,-0.616821,-0.03479,0.788208,0,0,0
192,5.557252,-5.145038,-9.038168,-0.613892,-0.036621,0.782593,0,0,0
195,5.435115,-5.129771,-8.854962,-0.614502,-0.043579,0.781494,0,0,0
198,5.175573,-5.099237,-9.038168,-0.614868,-0.041138,0.785522,0,0,0
201,5.19084,-4.900763,-9.007634,-0.609863,-0.040405,0.786865,0,0,0
204,5.236641,-5.068702,-8.916031,-0.611694,-0.038452,0.788086,0,0,0
207,5.358779,-4.946565,-8.946565,-0.609985,-0.040894,0.781982,0,0,0
210,5.221374,-4.80916,-8.977099,-0.613037,-0.040039,0.785278,0,0,0
213,5.175573,-4.931298,-8.931298,-0.611206,-0.040039,0.785889,0,0,0
216,4.885496,-4.900763,-8.854962,-0.61853,-0.0354,0.78833,0,0,0
219,5.099237,-4.687023,-8.961832,-0.615356,-0.038208,0.785278,0,0,0
222,4.80916,-4.778626,-8.824427,-0.609741,-0.039673,0.786377,0,0,0
225,5.068702,-4.732824,-9.099237,-0.611938,-0.039795,0.787476,0,0,0
228,5.175573,-4.641221,-8.992366,-0.610229,-0.043457,0.787109,0,0,0
231,4.885496,-4.59542,-8.778626,-0.617065,-0.044678,0.789185,0,0,0
234,4.885496,-4.519084,-8.48855,-0.612183,-0.046631,0.782104,0,0,0
237,5.099237,-4.244275,-8.503817,-0.611206,-0.045898,0.781982,0,0,0
240,5.099237,-4.122137,-8.412214,-0.610352,-0.045288,0.786133,0,0,0
243,5.572519,-4.427481,-8.320611,-0.611572,-0.044434,0.783081,0,0,0
246,5.740458,-4.412214,-8.045802,-0.618164,-0.045654,0.78772,0,0,0
249,6.320611,-4.305344,-8,-0.609985,-0.045776,0.786011,0,0,0
252,6.717557,-4.625954,-7.526718,-0.615356,-0.04541,0.788452,0,0,0
255,6.80916,-4.259542,-7.725191,-0.607788,-0.043213,0.786377,0,0,0
2,6.854962,-4.396947,-7.374046,-0.613403,-0.047363,0.786743,0,0,0
5,7.160305,-4.320611,-7.435115,-0.614868,-0.039307,0.788818,0,0,0
8,6.778626,-4.198473,-7.328244,-0.614502,-0.036377,0.787964,0,0,0
11,6.885496,-4.473282,-7.312977,-0.608276,-0.041748,0.78064,0,0,0
14,6.610687,-4.076336,-7.206107,-0.611572,-0.038452,0.793945,0,0,0
17,6.732824,-4.091603,-7.221374,-0.61145,-0.041382,0.788452,0,0,0
20,6.870229,-3.847328,-7.312977,-0.606689,-0.040283,0.786743,0,0,0
23,7.114504,-3.480916,-7.236641,-0.607788,-0.037231,0.79126,0,0,0
26,6.824427,-3.679389,-7.175573,-0.610718,-0.036499,0.790649,0,0,0
29,6.839695,-3.557252,-7.328244,-0.608765,-0.03772,0.788696,0,0,0
32,6.778626,-3.038168,-7.358779,-0.609497,-0.036621,0.792725,0,0,0
35,6.763359,-3.343511,-7.29771,-0.611938,-0.038696,0.790649,0,0,0
38,6.687023,-3.053435,-7.221374,-0.609863,-0.036865,0.791138,0,0,0
41,6.458015,-3.022901,-7.328244,-0.606689,-0.040283,0.790771,0,0,0
44,6.473282,-2.961832,-7.221374,-0.606201,-0.038574,0.79126,0,0,0
47,6.396947,-2.687023,-7.206107,-0.609253,-0.042603,0.789551,0,0,0
50,6.412214,-2.427481,-6.977099,-0.609131,-0.041626,0.787842,0,0,0
53,6.580153,-2.396947,-7.038168,-0.610596,-0.037109,0.790405,0,0,0
56,6.366412,-2.198473,-7.114504,-0.606689,-0.035278,0.789062,0,0,0
59,5.89313,-2.244275,-7.099237,-0.606934,-0.035034,0.790527,0,0,0
62,5.633588,-1.862595,-7.221374,-0.605713,-0.040405,0.793091,0,0,0
65,6.091603,-1.770992,-7.312977,-0.611084,-0.040039,0.793823,0,0,0
68,6.091603,-1.954198,-7.282443,-0.609131,-0.040894,0.788818,0,0,0
71,6.290076,-1.541985,-7.496183,-0.6073,-0.03772,0.790405,0,0,0
74,6.045802,-1.740458,-7.312977,-0.608521,-0.039429,0.792236,0,0,0
77,5.89313,-1.633588,-7.282443,-0.609253,-0.039062,0.786987,0,0,0
80,6,-1.450382,-7.419847,-0.605103,-0.039917,0.791016,0,0,0
83,5.618321,-1.465649,-7.328244,-0.606689,-0.035645,0.789062,0,0,0
86,5.328244,-1.51145,-7.374046,-0.607544,-0.039062,0.789307,0,0,0
89,5.419847,-1.389313,-7.572519,-0.609741,-0.033936,0.790283,0,0,0
92,5.099237,-1.587786,-7.572519,-0.611084,-0.036133,0.788208,0,0,0
95,4.732824,-1.419847,-7.862595,-0.609863,-0.037842,0.790283,0,0,0
98,4.442748,-1.526718,-7.801527,-0.612061,-0.034912,0.79248,0,0,0
